face,trigger,trials.thisRepN,trials.thisTrialN,trials.thisN,trials.thisIndex,fix_rand.started,fix_rand.stopped,Stimulus.started,participant,session,date,expName,psychopyVersion,frameRate,
/Users/jantzek/Documents/Easy_BCI/PsychoPy Examples/N170/Stim/White Men/38.jpg,2,0,0,0,77,10.587084875001892,11.824439625001105,11.824439625001105,244687,001,2023-03-18_10h45.35.493,N170,2022.2.4,None,
/Users/jantzek/Documents/Easy_BCI/PsychoPy Examples/N170/Stim/White Men/26.jpg,2,0,1,1,65,11.962015458000678,13.120248082999751,13.120248082999751,244687,001,2023-03-18_10h45.35.493,N170,2022.2.4,None,
/Users/jantzek/Documents/Easy_BCI/PsychoPy Examples/N170/Stim/cars/56.jpg,1,0,2,2,5,13.328044541998679,14.42686841700197,14.42686841700197,244687,001,2023-03-18_10h45.35.493,N170,2022.2.4,None,
/Users/jantzek/Documents/Easy_BCI/PsychoPy Examples/N170/Stim/cars/90.jpg,1,0,3,3,39,14.654072375000396,15.758853457999066,15.758853457999066,244687,001,2023-03-18_10h45.35.493,N170,2022.2.4,None,
/Users/jantzek/Documents/Easy_BCI/PsychoPy Examples/N170/Stim/cars/81.jpg,1,0,4,4,30,16.003349292001076,17.08218154199858,17.08218154199858,244687,001,2023-03-18_10h45.35.493,N170,2022.2.4,None,
/Users/jantzek/Documents/Easy_BCI/PsychoPy Examples/N170/Stim/cars/89.jpg,1,0,5,5,38,17.32823520799866,18.561114374999306,18.561114374999306,244687,001,2023-03-18_10h45.35.493,N170,2022.2.4,None,
/Users/jantzek/Documents/Easy_BCI/PsychoPy Examples/N170/Stim/White Men/22.jpg,2,0,6,6,61,18.794907625000633,19.935333000001265,19.935333000001265,244687,001,2023-03-18_10h45.35.493,N170,2022.2.4,None,
/Users/jantzek/Documents/Easy_BCI/PsychoPy Examples/N170/Stim/White Men/40.jpg,2,0,7,7,79,20.118105707999348,21.4389989170013,21.4389989170013,244687,001,2023-03-18_10h45.35.493,N170,2022.2.4,None,
/Users/jantzek/Documents/Easy_BCI/PsychoPy Examples/N170/Stim/cars/55.jpg,1,0,8,8,4,21.635633541998686,22.711988750001183,22.711988750001183,244687,001,2023-03-18_10h45.35.493,N170,2022.2.4,None,
/Users/jantzek/Documents/Easy_BCI/PsychoPy Examples/N170/Stim/cars/84.jpg,1,0,9,9,33,22.952709583001706,24.054717833001632,24.054717833001632,244687,001,2023-03-18_10h45.35.493,N170,2022.2.4,None,
/Users/jantzek/Documents/Easy_BCI/PsychoPy Examples/N170/Stim/White Men/37.jpg,2,0,10,10,76,24.286647917000664,25.468092167000577,25.468092167000577,244687,001,2023-03-18_10h45.35.493,N170,2022.2.4,None,
/Users/jantzek/Documents/Easy_BCI/PsychoPy Examples/N170/Stim/White Men/3.jpg,2,0,11,11,42,25.62839220800015,26.835001292001834,26.835001292001834,244687,001,2023-03-18_10h45.35.493,N170,2022.2.4,None,
/Users/jantzek/Documents/Easy_BCI/PsychoPy Examples/N170/Stim/cars/86.jpg,1,0,12,12,35,27.028732208000292,28.24173708300077,28.24173708300077,244687,001,2023-03-18_10h45.35.493,N170,2022.2.4,None,
/Users/jantzek/Documents/Easy_BCI/PsychoPy Examples/N170/Stim/White Men/28.jpg,2,0,13,13,67,28.461516750001465,29.583498749998398,29.583498749998398,244687,001,2023-03-18_10h45.35.493,N170,2022.2.4,None,
/Users/jantzek/Documents/Easy_BCI/PsychoPy Examples/N170/Stim/cars/62.jpg,1,0,14,14,11,29.778521500000352,30.912116832998436,30.912116832998436,244687,001,2023-03-18_10h45.35.493,N170,2022.2.4,None,
/Users/jantzek/Documents/Easy_BCI/PsychoPy Examples/N170/Stim/cars/71.jpg,1,0,15,15,20,31.144981958001154,32.19876808299887,32.19876808299887,244687,001,2023-03-18_10h45.35.493,N170,2022.2.4,None,
/Users/jantzek/Documents/Easy_BCI/PsychoPy Examples/N170/Stim/cars/74.jpg,1,0,16,16,23,32.43782916700002,33.5052234169998,33.5052234169998,244687,001,2023-03-18_10h45.35.493,N170,2022.2.4,None,
/Users/jantzek/Documents/Easy_BCI/PsychoPy Examples/N170/Stim/White Men/33.jpg,2,0,17,17,72,33.75428275000013,34.97613099999944,34.97613099999944,244687,001,2023-03-18_10h45.35.493,N170,2022.2.4,None,
/Users/jantzek/Documents/Easy_BCI/PsychoPy Examples/N170/Stim/cars/64.jpg,1,0,18,18,13,35.16865379199953,36.2321242500002,36.2321242500002,244687,001,2023-03-18_10h45.35.493,N170,2022.2.4,None,
/Users/jantzek/Documents/Easy_BCI/PsychoPy Examples/N170/Stim/White Men/35.jpg,2,0,19,19,74,36.4697777500005,37.63960529199903,37.63960529199903,244687,001,2023-03-18_10h45.35.493,N170,2022.2.4,None,
/Users/jantzek/Documents/Easy_BCI/PsychoPy Examples/N170/Stim/White Men/8.jpg,2,0,20,20,47,37.83471091699903,38.989800708000985,38.989800708000985,244687,001,2023-03-18_10h45.35.493,N170,2022.2.4,None,
/Users/jantzek/Documents/Easy_BCI/PsychoPy Examples/N170/Stim/cars/88.jpg,1,0,21,21,37,39.19528183299917,40.33193333300005,40.33193333300005,244687,001,2023-03-18_10h45.35.493,N170,2022.2.4,None,
/Users/jantzek/Documents/Easy_BCI/PsychoPy Examples/N170/Stim/White Men/5.jpg,2,0,22,22,44,40.57083829200201,41.67791641700023,41.67791641700023,244687,001,2023-03-18_10h45.35.493,N170,2022.2.4,None,
/Users/jantzek/Documents/Easy_BCI/PsychoPy Examples/N170/Stim/White Men/2.jpg,2,0,23,23,41,41.86905029199988,43.14293833299962,43.14293833299962,244687,001,2023-03-18_10h45.35.493,N170,2022.2.4,None,
/Users/jantzek/Documents/Easy_BCI/PsychoPy Examples/N170/Stim/cars/75.jpg,1,0,24,24,24,43.34523358300066,44.507595582999784,44.507595582999784,244687,001,2023-03-18_10h45.35.493,N170,2022.2.4,None,
/Users/jantzek/Documents/Easy_BCI/PsychoPy Examples/N170/Stim/cars/59.jpg,1,0,25,25,8,44.745194333001564,45.76542150000023,45.76542150000023,244687,001,2023-03-18_10h45.35.493,N170,2022.2.4,None,
/Users/jantzek/Documents/Easy_BCI/PsychoPy Examples/N170/Stim/cars/52.jpg,1,0,26,26,1,46.01163308299874,47.25690287500038,47.25690287500038,244687,001,2023-03-18_10h45.35.493,N170,2022.2.4,None,
/Users/jantzek/Documents/Easy_BCI/PsychoPy Examples/N170/Stim/cars/65.jpg,1,0,27,27,14,47.50361691700164,48.63901791700118,48.63901791700118,244687,001,2023-03-18_10h45.35.493,N170,2022.2.4,None,
/Users/jantzek/Documents/Easy_BCI/PsychoPy Examples/N170/Stim/White Men/32.jpg,2,0,28,28,71,48.88678712500041,50.00873258299907,50.00873258299907,244687,001,2023-03-18_10h45.35.493,N170,2022.2.4,None,
/Users/jantzek/Documents/Easy_BCI/PsychoPy Examples/N170/Stim/cars/77.jpg,1,0,29,29,26,50.202371125000354,51.36592024999845,51.36592024999845,244687,001,2023-03-18_10h45.35.493,N170,2022.2.4,None,
/Users/jantzek/Documents/Easy_BCI/PsychoPy Examples/N170/Stim/cars/68.jpg,1,0,30,30,17,51.60347045800154,52.77521554199848,52.77521554199848,244687,001,2023-03-18_10h45.35.493,N170,2022.2.4,None,
/Users/jantzek/Documents/Easy_BCI/PsychoPy Examples/N170/Stim/cars/66.jpg,1,0,31,31,15,53.02070079199984,54.148841833000915,54.148841833000915,244687,001,2023-03-18_10h45.35.493,N170,2022.2.4,None,
/Users/jantzek/Documents/Easy_BCI/PsychoPy Examples/N170/Stim/cars/82.jpg,1,0,32,32,31,54.395482250001805,55.47175866700127,55.47175866700127,244687,001,2023-03-18_10h45.35.493,N170,2022.2.4,None,
/Users/jantzek/Documents/Easy_BCI/PsychoPy Examples/N170/Stim/cars/69.jpg,1,0,33,33,18,55.72063008300029,56.888368957999774,56.888368957999774,244687,001,2023-03-18_10h45.35.493,N170,2022.2.4,None,
/Users/jantzek/Documents/Easy_BCI/PsychoPy Examples/N170/Stim/White Men/1.jpg,2,0,34,34,40,57.13687774999926,58.22601487499924,58.22601487499924,244687,001,2023-03-18_10h45.35.493,N170,2022.2.4,None,
/Users/jantzek/Documents/Easy_BCI/PsychoPy Examples/N170/Stim/White Men/23.jpg,2,0,35,35,62,58.41784254199956,59.62906700000167,59.62906700000167,244687,001,2023-03-18_10h45.35.493,N170,2022.2.4,None,
/Users/jantzek/Documents/Easy_BCI/PsychoPy Examples/N170/Stim/cars/63.jpg,1,0,36,36,12,59.83608599999934,61.00519274999897,61.00519274999897,244687,001,2023-03-18_10h45.35.493,N170,2022.2.4,None,
/Users/jantzek/Documents/Easy_BCI/PsychoPy Examples/N170/Stim/White Men/27.jpg,2,0,37,37,66,61.245124958000815,62.3588642499999,62.3588642499999,244687,001,2023-03-18_10h45.35.493,N170,2022.2.4,None,
/Users/jantzek/Documents/Easy_BCI/PsychoPy Examples/N170/Stim/cars/57.jpg,1,0,38,38,6,62.55135558300026,63.76261933299975,63.76261933299975,244687,001,2023-03-18_10h45.35.493,N170,2022.2.4,None,
/Users/jantzek/Documents/Easy_BCI/PsychoPy Examples/N170/Stim/White Men/31.jpg,2,0,39,39,70,64.00456887499968,65.12141987499854,65.12141987499854,244687,001,2023-03-18_10h45.35.493,N170,2022.2.4,None,
/Users/jantzek/Documents/Easy_BCI/PsychoPy Examples/N170/Stim/cars/78.jpg,1,0,40,40,27,65.31201033300022,66.42630695800108,66.42630695800108,244687,001,2023-03-18_10h45.35.493,N170,2022.2.4,None,
/Users/jantzek/Documents/Easy_BCI/PsychoPy Examples/N170/Stim/cars/53.jpg,1,0,41,41,2,66.66178125000079,67.79940566699952,67.79940566699952,244687,001,2023-03-18_10h45.35.493,N170,2022.2.4,None,
/Users/jantzek/Documents/Easy_BCI/PsychoPy Examples/N170/Stim/White Men/4.jpg,2,0,42,42,43,68.04520699999921,69.19108979199882,69.19108979199882,244687,001,2023-03-18_10h45.35.493,N170,2022.2.4,None,
/Users/jantzek/Documents/Easy_BCI/PsychoPy Examples/N170/Stim/White Men/36.jpg,2,0,43,43,75,69.38511866699992,70.57940016700013,70.57940016700013,244687,001,2023-03-18_10h45.35.493,N170,2022.2.4,None,
/Users/jantzek/Documents/Easy_BCI/PsychoPy Examples/N170/Stim/cars/73.jpg,1,0,44,44,22,70.78601716699995,72.0467104169984,72.0467104169984,244687,001,2023-03-18_10h45.35.493,N170,2022.2.4,None,
/Users/jantzek/Documents/Easy_BCI/PsychoPy Examples/N170/Stim/White Men/10.jpg,2,0,45,45,49,72.286812792001,73.45742420800161,73.45742420800161,244687,001,2023-03-18_10h45.35.493,N170,2022.2.4,None,
/Users/jantzek/Documents/Easy_BCI/PsychoPy Examples/N170/Stim/cars/51.jpg,1,0,46,46,0,73.6545367079998,74.76320108299842,74.76320108299842,244687,001,2023-03-18_10h45.35.493,N170,2022.2.4,None,
/Users/jantzek/Documents/Easy_BCI/PsychoPy Examples/N170/Stim/cars/61.jpg,1,0,47,47,10,75.003719291999,76.16588733300159,76.16588733300159,244687,001,2023-03-18_10h45.35.493,N170,2022.2.4,None,
,,,,,,76.41212062500199,,,,,,,,,
