face,trigger,trials.thisRepN,trials.thisTrialN,trials.thisN,trials.thisIndex,fix_rand.started,fix_rand.stopped,Stimulus.started,participant,session,date,expName,psychopyVersion,frameRate,
/Users/jantzek/Documents/Easy_BCI/PsychoPy Examples/N170/Stim/cars/61.jpg,1,0,0,0,10,12.249078041997564,13.399938624999777,13.399938624999777,371052,001,2023-03-18_10h48.08.158,N170,2022.2.4,None,
/Users/jantzek/Documents/Easy_BCI/PsychoPy Examples/N170/Stim/cars/77.jpg,1,0,1,1,26,13.612784000000829,14.699813333998463,14.699813333998463,371052,001,2023-03-18_10h48.08.158,N170,2022.2.4,None,
/Users/jantzek/Documents/Easy_BCI/PsychoPy Examples/N170/Stim/White Men/28.jpg,2,0,2,2,67,14.929524208997464,16.141339208999852,16.141339208999852,371052,001,2023-03-18_10h48.08.158,N170,2022.2.4,None,
/Users/jantzek/Documents/Easy_BCI/PsychoPy Examples/N170/Stim/White Men/4.jpg,2,0,3,3,43,16.29357304199948,17.464369208999415,17.464369208999415,371052,001,2023-03-18_10h48.08.158,N170,2022.2.4,None,
/Users/jantzek/Documents/Easy_BCI/PsychoPy Examples/N170/Stim/cars/85.jpg,1,0,4,4,34,17.654423791998852,18.76993333399878,18.76993333399878,371052,001,2023-03-18_10h48.08.158,N170,2022.2.4,None,
/Users/jantzek/Documents/Easy_BCI/PsychoPy Examples/N170/Stim/cars/76.jpg,1,0,5,5,25,19.01362537499881,20.158741249997547,20.158741249997547,371052,001,2023-03-18_10h48.08.158,N170,2022.2.4,None,
/Users/jantzek/Documents/Easy_BCI/PsychoPy Examples/N170/Stim/cars/89.jpg,1,0,6,6,38,20.404370249998465,21.51014320899776,21.51014320899776,371052,001,2023-03-18_10h48.08.158,N170,2022.2.4,None,
/Users/jantzek/Documents/Easy_BCI/PsychoPy Examples/N170/Stim/White Men/37.jpg,2,0,7,7,76,21.754265166997357,22.940623209000478,22.940623209000478,371052,001,2023-03-18_10h48.08.158,N170,2022.2.4,None,
/Users/jantzek/Documents/Easy_BCI/PsychoPy Examples/N170/Stim/cars/67.jpg,1,0,8,8,16,23.122921583999414,24.286321749998024,24.286321749998024,371052,001,2023-03-18_10h48.08.158,N170,2022.2.4,None,
/Users/jantzek/Documents/Easy_BCI/PsychoPy Examples/N170/Stim/cars/78.jpg,1,0,9,9,27,24.52094345899968,25.593100374997448,25.593100374997448,371052,001,2023-03-18_10h48.08.158,N170,2022.2.4,None,
/Users/jantzek/Documents/Easy_BCI/PsychoPy Examples/N170/Stim/White Men/10.jpg,2,0,10,10,49,25.838260666998394,26.945184624997637,26.945184624997637,371052,001,2023-03-18_10h48.08.158,N170,2022.2.4,None,
/Users/jantzek/Documents/Easy_BCI/PsychoPy Examples/N170/Stim/White Men/16.jpg,2,0,11,11,55,27.154257916998176,28.224267875000805,28.224267875000805,371052,001,2023-03-18_10h48.08.158,N170,2022.2.4,None,
/Users/jantzek/Documents/Easy_BCI/PsychoPy Examples/N170/Stim/White Men/40.jpg,2,0,12,12,79,28.420956624999235,29.561878124997747,29.561878124997747,371052,001,2023-03-18_10h48.08.158,N170,2022.2.4,None,
/Users/jantzek/Documents/Easy_BCI/PsychoPy Examples/N170/Stim/cars/63.jpg,1,0,13,13,12,29.771327458998712,30.82069954200051,30.82069954200051,371052,001,2023-03-18_10h48.08.158,N170,2022.2.4,None,
/Users/jantzek/Documents/Easy_BCI/PsychoPy Examples/N170/Stim/cars/57.jpg,1,0,14,14,6,31.063697292000143,32.16673170899958,32.16673170899958,371052,001,2023-03-18_10h48.08.158,N170,2022.2.4,None,
/Users/jantzek/Documents/Easy_BCI/PsychoPy Examples/N170/Stim/White Men/31.jpg,2,0,15,15,70,32.404464667000866,33.53025862499999,33.53025862499999,371052,001,2023-03-18_10h48.08.158,N170,2022.2.4,None,
/Users/jantzek/Documents/Easy_BCI/PsychoPy Examples/N170/Stim/White Men/18.jpg,2,0,16,16,57,33.72123199999987,34.81776629199885,34.81776629199885,371052,001,2023-03-18_10h48.08.158,N170,2022.2.4,None,
/Users/jantzek/Documents/Easy_BCI/PsychoPy Examples/N170/Stim/cars/56.jpg,1,0,17,17,5,35.02132866700049,36.12331383399942,36.12331383399942,371052,001,2023-03-18_10h48.08.158,N170,2022.2.4,None,
/Users/jantzek/Documents/Easy_BCI/PsychoPy Examples/N170/Stim/White Men/21.jpg,2,0,18,18,60,36.36274887499894,37.516292874999635,37.516292874999635,371052,001,2023-03-18_10h48.08.158,N170,2022.2.4,None,
/Users/jantzek/Documents/Easy_BCI/PsychoPy Examples/N170/Stim/cars/59.jpg,1,0,19,19,8,37.712179792000825,38.95497120899745,38.95497120899745,371052,001,2023-03-18_10h48.08.158,N170,2022.2.4,None,
/Users/jantzek/Documents/Easy_BCI/PsychoPy Examples/N170/Stim/cars/73.jpg,1,0,20,20,22,39.195924708998064,40.41648404199805,40.41648404199805,371052,001,2023-03-18_10h48.08.158,N170,2022.2.4,None,
/Users/jantzek/Documents/Easy_BCI/PsychoPy Examples/N170/Stim/White Men/13.jpg,2,0,21,21,52,40.66299554199941,41.76831904199935,41.76831904199935,371052,001,2023-03-18_10h48.08.158,N170,2022.2.4,None,
/Users/jantzek/Documents/Easy_BCI/PsychoPy Examples/N170/Stim/White Men/12.jpg,2,0,22,22,51,41.96182899999985,43.123112541998125,43.123112541998125,371052,001,2023-03-18_10h48.08.158,N170,2022.2.4,None,
/Users/jantzek/Documents/Easy_BCI/PsychoPy Examples/N170/Stim/cars/74.jpg,1,0,23,23,23,43.3289118749999,44.43523508399812,44.43523508399812,371052,001,2023-03-18_10h48.08.158,N170,2022.2.4,None,
/Users/jantzek/Documents/Easy_BCI/PsychoPy Examples/N170/Stim/cars/83.jpg,1,0,24,24,32,44.67127912499927,45.74383670899988,45.74383670899988,371052,001,2023-03-18_10h48.08.158,N170,2022.2.4,None,
/Users/jantzek/Documents/Easy_BCI/PsychoPy Examples/N170/Stim/cars/54.jpg,1,0,25,25,3,45.988220791998174,47.09869270899799,47.09869270899799,371052,001,2023-03-18_10h48.08.158,N170,2022.2.4,None,
/Users/jantzek/Documents/Easy_BCI/PsychoPy Examples/N170/Stim/White Men/30.jpg,2,0,26,26,69,47.34727758399822,48.51704262500061,48.51704262500061,371052,001,2023-03-18_10h48.08.158,N170,2022.2.4,None,
/Users/jantzek/Documents/Easy_BCI/PsychoPy Examples/N170/Stim/cars/70.jpg,1,0,27,27,19,48.71166008399814,49.9045245419984,49.9045245419984,371052,001,2023-03-18_10h48.08.158,N170,2022.2.4,None,
/Users/jantzek/Documents/Easy_BCI/PsychoPy Examples/N170/Stim/White Men/23.jpg,2,0,28,28,62,50.13783770900045,51.294515083998704,51.294515083998704,371052,001,2023-03-18_10h48.08.158,N170,2022.2.4,None,
/Users/jantzek/Documents/Easy_BCI/PsychoPy Examples/N170/Stim/White Men/6.jpg,2,0,29,29,45,51.47786208400066,52.62406808399828,52.62406808399828,371052,001,2023-03-18_10h48.08.158,N170,2022.2.4,None,
/Users/jantzek/Documents/Easy_BCI/PsychoPy Examples/N170/Stim/White Men/38.jpg,2,0,30,30,77,52.82889629199781,54.002378291999776,54.002378291999776,371052,001,2023-03-18_10h48.08.158,N170,2022.2.4,None,
/Users/jantzek/Documents/Easy_BCI/PsychoPy Examples/N170/Stim/White Men/19.jpg,2,0,31,31,58,54.2121307089983,55.29395766699963,55.29395766699963,371052,001,2023-03-18_10h48.08.158,N170,2022.2.4,None,
/Users/jantzek/Documents/Easy_BCI/PsychoPy Examples/N170/Stim/cars/86.jpg,1,0,32,32,35,55.50513158399917,56.599640291999094,56.599640291999094,371052,001,2023-03-18_10h48.08.158,N170,2022.2.4,None,
/Users/jantzek/Documents/Easy_BCI/PsychoPy Examples/N170/Stim/cars/66.jpg,1,0,33,33,15,56.83808529199814,57.865638667000894,57.865638667000894,371052,001,2023-03-18_10h48.08.158,N170,2022.2.4,None,
/Users/jantzek/Documents/Easy_BCI/PsychoPy Examples/N170/Stim/cars/51.jpg,1,0,34,34,0,58.11367658399831,59.1592348339982,59.1592348339982,371052,001,2023-03-18_10h48.08.158,N170,2022.2.4,None,
/Users/jantzek/Documents/Easy_BCI/PsychoPy Examples/N170/Stim/cars/88.jpg,1,0,35,35,37,59.40464116699877,60.48130458399828,60.48130458399828,371052,001,2023-03-18_10h48.08.158,N170,2022.2.4,None,
/Users/jantzek/Documents/Easy_BCI/PsychoPy Examples/N170/Stim/cars/79.jpg,1,0,36,36,28,60.73049045899825,61.91513850000047,61.91513850000047,371052,001,2023-03-18_10h48.08.158,N170,2022.2.4,None,
/Users/jantzek/Documents/Easy_BCI/PsychoPy Examples/N170/Stim/cars/60.jpg,1,0,37,37,9,62.16293199999927,63.26520899999741,63.26520899999741,371052,001,2023-03-18_10h48.08.158,N170,2022.2.4,None,
/Users/jantzek/Documents/Easy_BCI/PsychoPy Examples/N170/Stim/White Men/34.jpg,2,0,38,38,73,63.50456487499832,64.62427358399873,64.62427358399873,371052,001,2023-03-18_10h48.08.158,N170,2022.2.4,None,
/Users/jantzek/Documents/Easy_BCI/PsychoPy Examples/N170/Stim/cars/71.jpg,1,0,39,39,20,64.81175099999746,66.01753008399828,66.01753008399828,371052,001,2023-03-18_10h48.08.158,N170,2022.2.4,None,
/Users/jantzek/Documents/Easy_BCI/PsychoPy Examples/N170/Stim/White Men/1.jpg,2,0,40,40,40,66.24680287500087,67.38626833399758,67.38626833399758,371052,001,2023-03-18_10h48.08.158,N170,2022.2.4,None,
/Users/jantzek/Documents/Easy_BCI/PsychoPy Examples/N170/Stim/cars/90.jpg,1,0,41,41,39,67.57753883400073,68.77399229200091,68.77399229200091,371052,001,2023-03-18_10h48.08.158,N170,2022.2.4,None,
/Users/jantzek/Documents/Easy_BCI/PsychoPy Examples/N170/Stim/White Men/14.jpg,2,0,42,42,53,69.01283729200077,70.2808999589979,70.2808999589979,371052,001,2023-03-18_10h48.08.158,N170,2022.2.4,None,
/Users/jantzek/Documents/Easy_BCI/PsychoPy Examples/N170/Stim/White Men/8.jpg,2,0,43,43,47,70.4713778339974,71.58872608399906,71.58872608399906,371052,001,2023-03-18_10h48.08.158,N170,2022.2.4,None,
/Users/jantzek/Documents/Easy_BCI/PsychoPy Examples/N170/Stim/White Men/24.jpg,2,0,44,44,63,71.79568391700013,73.00125537499844,73.00125537499844,371052,001,2023-03-18_10h48.08.158,N170,2022.2.4,None,
/Users/jantzek/Documents/Easy_BCI/PsychoPy Examples/N170/Stim/White Men/25.jpg,2,0,45,45,64,73.21298329199999,74.33882704200005,74.33882704200005,371052,001,2023-03-18_10h48.08.158,N170,2022.2.4,None,
/Users/jantzek/Documents/Easy_BCI/PsychoPy Examples/N170/Stim/White Men/33.jpg,2,0,46,46,72,74.54586191699855,75.61967679199734,75.61967679199734,371052,001,2023-03-18_10h48.08.158,N170,2022.2.4,None,
/Users/jantzek/Documents/Easy_BCI/PsychoPy Examples/N170/Stim/cars/52.jpg,1,0,47,47,1,75.82965137499923,76.89877324999907,76.89877324999907,371052,001,2023-03-18_10h48.08.158,N170,2022.2.4,None,
/Users/jantzek/Documents/Easy_BCI/PsychoPy Examples/N170/Stim/White Men/7.jpg,2,0,48,48,46,77.1380477499988,78.42926533399805,78.42926533399805,371052,001,2023-03-18_10h48.08.158,N170,2022.2.4,None,
/Users/jantzek/Documents/Easy_BCI/PsychoPy Examples/N170/Stim/cars/80.jpg,1,0,49,49,29,78.62153354199836,79.6493527499988,79.6493527499988,371052,001,2023-03-18_10h48.08.158,N170,2022.2.4,None,
/Users/jantzek/Documents/Easy_BCI/PsychoPy Examples/N170/Stim/cars/65.jpg,1,0,50,50,14,79.88007904199912,80.96046099999876,80.96046099999876,371052,001,2023-03-18_10h48.08.158,N170,2022.2.4,None,
/Users/jantzek/Documents/Easy_BCI/PsychoPy Examples/N170/Stim/cars/53.jpg,1,0,51,51,2,81.20476137500009,82.4421532919987,82.4421532919987,371052,001,2023-03-18_10h48.08.158,N170,2022.2.4,None,
/Users/jantzek/Documents/Easy_BCI/PsychoPy Examples/N170/Stim/White Men/2.jpg,2,0,52,52,41,82.68830945899754,83.78334804199767,83.78334804199767,371052,001,2023-03-18_10h48.08.158,N170,2022.2.4,None,
/Users/jantzek/Documents/Easy_BCI/PsychoPy Examples/N170/Stim/cars/75.jpg,1,0,53,53,24,83.96118737500001,85.07363812499898,85.07363812499898,371052,001,2023-03-18_10h48.08.158,N170,2022.2.4,None,
/Users/jantzek/Documents/Easy_BCI/PsychoPy Examples/N170/Stim/White Men/3.jpg,2,0,54,54,42,85.30467491699892,86.42665241699797,86.42665241699797,371052,001,2023-03-18_10h48.08.158,N170,2022.2.4,None,
/Users/jantzek/Documents/Easy_BCI/PsychoPy Examples/N170/Stim/cars/62.jpg,1,0,55,55,11,86.62145387499913,87.73197674999756,87.73197674999756,371052,001,2023-03-18_10h48.08.158,N170,2022.2.4,None,
/Users/jantzek/Documents/Easy_BCI/PsychoPy Examples/N170/Stim/cars/84.jpg,1,0,56,56,33,87.97137233399917,89.21602200000052,89.21602200000052,371052,001,2023-03-18_10h48.08.158,N170,2022.2.4,None,
/Users/jantzek/Documents/Easy_BCI/PsychoPy Examples/N170/Stim/White Men/27.jpg,2,0,57,57,66,89.45530037500066,90.63430391699876,90.63430391699876,371052,001,2023-03-18_10h48.08.158,N170,2022.2.4,None,
/Users/jantzek/Documents/Easy_BCI/PsychoPy Examples/N170/Stim/cars/72.jpg,1,0,58,58,21,90.82859445899885,91.8748794589992,91.8748794589992,371052,001,2023-03-18_10h48.08.158,N170,2022.2.4,None,
/Users/jantzek/Documents/Easy_BCI/PsychoPy Examples/N170/Stim/White Men/17.jpg,2,0,59,59,56,92.1131448749984,93.20093379199898,93.20093379199898,371052,001,2023-03-18_10h48.08.158,N170,2022.2.4,None,
/Users/jantzek/Documents/Easy_BCI/PsychoPy Examples/N170/Stim/White Men/29.jpg,2,0,60,60,68,93.39470791699932,94.49986162499772,94.49986162499772,371052,001,2023-03-18_10h48.08.158,N170,2022.2.4,None,
/Users/jantzek/Documents/Easy_BCI/PsychoPy Examples/N170/Stim/White Men/36.jpg,2,0,61,61,75,94.70520566699997,95.82814108399907,95.82814108399907,371052,001,2023-03-18_10h48.08.158,N170,2022.2.4,None,
,,,,,,96.0384957919996,,,,,,,,,
