trials.thisRepN,trials.thisTrialN,trials.thisN,trials.thisIndex,image.started,fixation.started,image_2.started,fixation_2.started,image.stopped,fixation.stopped,image_2.stopped,fixation_2.stopped,participant,session,date,expName,psychopyVersion,frameRate,
0,0,0,0,12.003095624997513,12.003095624997513,12.078899166997871,12.078899166997871,,,,,333156,001,2023-03-17_10h50.07.623,simple VEP,2022.2.4,None,
1,0,1,0,12.17576929200004,12.17576929200004,12.263895208001486,12.263895208001486,12.263895208001486,12.263895208001486,12.359356749999279,12.359356749999279,333156,001,2023-03-17_10h50.07.623,simple VEP,2022.2.4,None,
2,0,2,0,12.359356749999279,12.359356749999279,12.459589291996963,12.459589291996963,12.4484440419983,12.4484440419983,12.548512499997742,12.548512499997742,333156,001,2023-03-17_10h50.07.623,simple VEP,2022.2.4,None,
3,0,3,0,12.5593977919998,12.5593977919998,12.6593447080013,12.6593447080013,12.646760582996649,12.646760582996649,12.747887249999621,12.747887249999621,333156,001,2023-03-17_10h50.07.623,simple VEP,2022.2.4,None,
4,0,4,0,12.759825791996263,12.759825791996263,12.859712500001478,12.859712500001478,12.848184082999069,12.848184082999069,12.946696792001603,12.946696792001603,333156,001,2023-03-17_10h50.07.623,simple VEP,2022.2.4,None,
5,0,5,0,12.960214332997566,12.960214332997566,13.059557041997323,13.059557041997323,13.04701458299678,13.04701458299678,13.148442833000445,13.148442833000445,333156,001,2023-03-17_10h50.07.623,simple VEP,2022.2.4,None,
6,0,6,0,13.159591541996633,13.159591541996633,13.259406582998054,13.259406582998054,13.247312958003022,13.247312958003022,13.348216917001992,13.348216917001992,333156,001,2023-03-17_10h50.07.623,simple VEP,2022.2.4,None,
7,0,7,0,13.359585457998037,13.359585457998037,13.459569291997468,13.459569291997468,13.4471489580028,13.4471489580028,13.548372375000326,13.548372375000326,333156,001,2023-03-17_10h50.07.623,simple VEP,2022.2.4,None,
8,0,8,0,13.559543124996708,13.559543124996708,13.659380291996058,13.659380291996058,13.64789991699945,13.64789991699945,13.748335750002298,13.748335750002298,333156,001,2023-03-17_10h50.07.623,simple VEP,2022.2.4,None,
9,0,9,0,13.759532083000522,13.759532083000522,13.85954933299945,13.85954933299945,13.846655957997427,13.846655957997427,13.94914366699959,13.94914366699959,333156,001,2023-03-17_10h50.07.623,simple VEP,2022.2.4,None,
10,0,10,0,13.959601374997874,13.959601374997874,14.059451708002598,14.059451708002598,14.04816558300081,14.04816558300081,14.148426082996593,14.148426082996593,333156,001,2023-03-17_10h50.07.623,simple VEP,2022.2.4,None,
11,0,11,0,14.159557457998744,14.159557457998744,14.25948445800168,14.25948445800168,14.247160207996785,14.247160207996785,14.348329082997225,14.348329082997225,333156,001,2023-03-17_10h50.07.623,simple VEP,2022.2.4,None,
12,0,12,0,14.359585582998989,14.359585582998989,14.459630999997898,14.459630999997898,14.4469967920013,14.4469967920013,14.54863229199691,14.54863229199691,333156,001,2023-03-17_10h50.07.623,simple VEP,2022.2.4,None,
13,0,13,0,14.559694167000998,14.559694167000998,14.659577792001073,14.659577792001073,14.646940291997453,14.646940291997453,14.748444791999646,14.748444791999646,333156,001,2023-03-17_10h50.07.623,simple VEP,2022.2.4,None,
14,0,14,0,14.759561166996718,14.759561166996718,14.859660666996206,14.859660666996206,14.846905457998218,14.846905457998218,14.94817116700142,14.94817116700142,333156,001,2023-03-17_10h50.07.623,simple VEP,2022.2.4,None,
15,0,15,0,14.959638916996482,14.959638916996482,15.059556667001743,15.059556667001743,15.04666691699822,15.04666691699822,15.148603875000845,15.148603875000845,333156,001,2023-03-17_10h50.07.623,simple VEP,2022.2.4,None,
16,0,16,0,15.159598457998072,15.159598457998072,15.25974983299966,15.25974983299966,15.24731108299602,15.24731108299602,15.348188707997906,15.348188707997906,333156,001,2023-03-17_10h50.07.623,simple VEP,2022.2.4,None,
17,0,17,0,15.359464624998509,15.359464624998509,15.459405458001129,15.459405458001129,15.44732125000155,15.44732125000155,15.547991332998208,15.547991332998208,333156,001,2023-03-17_10h50.07.623,simple VEP,2022.2.4,None,
18,0,18,0,15.559413082999527,15.559413082999527,15.66020720799861,15.66020720799861,15.647057957998186,15.647057957998186,15.748442042000534,15.748442042000534,333156,001,2023-03-17_10h50.07.623,simple VEP,2022.2.4,None,
19,0,19,0,15.759401832998265,15.759401832998265,15.859568833002413,15.859568833002413,15.846867833002761,15.846867833002761,15.948519332996511,15.948519332996511,333156,001,2023-03-17_10h50.07.623,simple VEP,2022.2.4,None,
20,0,20,0,15.95944537500327,15.95944537500327,16.05997387500247,16.05997387500247,16.047098374998313,16.047098374998313,16.148352208001597,16.148352208001597,333156,001,2023-03-17_10h50.07.623,simple VEP,2022.2.4,None,
21,0,21,0,16.159623708001163,16.159623708001163,16.25963950000005,16.25963950000005,16.246991250001884,16.246991250001884,16.348329041997204,16.348329041997204,333156,001,2023-03-17_10h50.07.623,simple VEP,2022.2.4,None,
22,0,22,0,16.359549166998477,16.359549166998477,16.45962487500219,16.45962487500219,16.447548666998046,16.447548666998046,16.5482237920005,16.5482237920005,333156,001,2023-03-17_10h50.07.623,simple VEP,2022.2.4,None,
23,0,23,0,16.55939637499978,16.55939637499978,16.65968399999838,16.65968399999838,16.647018625000783,16.647018625000783,16.74944058300025,16.74944058300025,333156,001,2023-03-17_10h50.07.623,simple VEP,2022.2.4,None,
24,0,24,0,16.759402832998603,16.759402832998603,16.859511208000185,16.859511208000185,16.847187416999077,16.847187416999077,16.9479029169961,16.9479029169961,333156,001,2023-03-17_10h50.07.623,simple VEP,2022.2.4,None,
25,0,25,0,16.959406916997978,16.959406916997978,17.059619667001243,17.059619667001243,17.046555875000195,17.046555875000195,17.148376208002446,17.148376208002446,333156,001,2023-03-17_10h50.07.623,simple VEP,2022.2.4,None,
26,0,26,0,17.15971104199707,17.15971104199707,17.25953308300086,17.25953308300086,17.246879291997175,17.246879291997175,17.348342042001605,17.348342042001605,333156,001,2023-03-17_10h50.07.623,simple VEP,2022.2.4,None,
27,0,27,0,17.35952908299805,17.35952908299805,17.45992254200246,17.45992254200246,17.44678841700079,17.44678841700079,17.549562416999834,17.549562416999834,333156,001,2023-03-17_10h50.07.623,simple VEP,2022.2.4,None,
28,0,28,0,17.559528999998292,17.559528999998292,17.65966933299933,17.65966933299933,17.647954874999414,17.647954874999414,17.748546625000017,17.748546625000017,333156,001,2023-03-17_10h50.07.623,simple VEP,2022.2.4,None,
29,0,29,0,17.759549791997415,17.759549791997415,17.8600122919961,17.8600122919961,17.846900750002533,17.846900750002533,17.948398207998252,17.948398207998252,333156,001,2023-03-17_10h50.07.623,simple VEP,2022.2.4,None,
30,0,30,0,17.959728542002267,17.959728542002267,18.059594042002573,18.059594042002573,18.048082166998938,18.048082166998938,18.14852562500164,18.14852562500164,333156,001,2023-03-17_10h50.07.623,simple VEP,2022.2.4,None,
31,0,31,0,18.159588583002915,18.159588583002915,18.259897374999127,18.259897374999127,18.247972666998976,18.247972666998976,18.34887124999659,18.34887124999659,333156,001,2023-03-17_10h50.07.623,simple VEP,2022.2.4,None,
32,0,32,0,18.359657417000562,18.359657417000562,18.459702583000762,18.459702583000762,18.44688341699657,18.44688341699657,18.54818250000244,18.54818250000244,333156,001,2023-03-17_10h50.07.623,simple VEP,2022.2.4,None,
33,0,33,0,18.559802458003105,18.559802458003105,18.65963783299958,18.65963783299958,18.64833308300149,18.64833308300149,18.74833645799663,18.74833645799663,333156,001,2023-03-17_10h50.07.623,simple VEP,2022.2.4,None,
34,0,34,0,18.759573916999216,18.759573916999216,18.85962729199673,18.85962729199673,18.846979249996366,18.846979249996366,18.948572667002736,18.948572667002736,333156,001,2023-03-17_10h50.07.623,simple VEP,2022.2.4,None,
35,0,35,0,18.959749000001466,18.959749000001466,19.05959108300158,19.05959108300158,19.04692787500244,19.04692787500244,19.14812583300227,19.14812583300227,333156,001,2023-03-17_10h50.07.623,simple VEP,2022.2.4,None,
36,0,36,0,19.15957491700101,19.15957491700101,19.259629291998863,19.259629291998863,19.24693791699974,19.24693791699974,,,333156,001,2023-03-17_10h50.07.623,simple VEP,2022.2.4,None,
