trials.thisRepN,trials.thisTrialN,trials.thisN,trials.thisIndex,trials_2.thisRepN,trials_2.thisTrialN,trials_2.thisN,trials_2.thisIndex,image.started,fixation.started,image.stopped,fixation.stopped,image_2.started,fixation_2.started,image_2.stopped,fixation_2.stopped,delay_fix.started,delay_fix.stopped,newfix.started,newfix.stopped,participant,session,date,expName,psychopyVersion,frameRate,
0,0,0,0,,,,,13.223249250000663,13.223249250000663,13.315406582998548,13.315406582998548,13.315406582998548,13.315406582998548,13.374988083000062,13.374988083000062,,,,,611418,001,2023-03-18_09h56.37.955,simple VEP,2022.2.4,None,
1,0,1,0,,,,,13.374988083000062,13.374988083000062,13.439511625001614,13.439511625001614,13.439511625001614,13.439511625001614,13.497346500000276,13.497346500000276,,,,,611418,001,2023-03-18_09h56.37.955,simple VEP,2022.2.4,None,
2,0,2,0,,,,,13.497346500000276,13.497346500000276,13.55349416700119,13.55349416700119,13.55349416700119,13.55349416700119,13.613782332999108,13.613782332999108,,,,,611418,001,2023-03-18_09h56.37.955,simple VEP,2022.2.4,None,
3,0,3,0,,,,,13.613782332999108,13.613782332999108,13.676346832999116,13.676346832999116,13.676346832999116,13.676346832999116,13.74186762500176,13.74186762500176,,,,,611418,001,2023-03-18_09h56.37.955,simple VEP,2022.2.4,None,
4,0,4,0,,,,,13.74186762500176,13.74186762500176,13.803542333000223,13.803542333000223,13.803542333000223,13.803542333000223,13.866693625001062,13.866693625001062,,,,,611418,001,2023-03-18_09h56.37.955,simple VEP,2022.2.4,None,
5,0,5,0,,,,,13.866693625001062,13.866693625001062,13.929563082998357,13.929563082998357,13.929563082998357,13.929563082998357,13.997071041998424,13.997071041998424,,,,,611418,001,2023-03-18_09h56.37.955,simple VEP,2022.2.4,None,
6,0,6,0,,,,,13.997071041998424,13.997071041998424,14.056672792001336,14.056672792001336,14.056672792001336,14.056672792001336,14.12348162499984,14.12348162499984,,,,,611418,001,2023-03-18_09h56.37.955,simple VEP,2022.2.4,None,
7,0,7,0,,,,,14.12348162499984,14.12348162499984,14.192584417000035,14.192584417000035,14.192584417000035,14.192584417000035,14.25602649999928,14.25602649999928,,,,,611418,001,2023-03-18_09h56.37.955,simple VEP,2022.2.4,None,
8,0,8,0,,,,,14.25602649999928,14.25602649999928,14.322379083001579,14.322379083001579,14.322379083001579,14.322379083001579,14.387397875001625,14.387397875001625,,,,,611418,001,2023-03-18_09h56.37.955,simple VEP,2022.2.4,None,
9,0,9,0,,,,,14.387397875001625,14.387397875001625,14.451243499999691,14.451243499999691,14.451243499999691,14.451243499999691,14.513749417001236,14.513749417001236,,,,,611418,001,2023-03-18_09h56.37.955,simple VEP,2022.2.4,None,
10,0,10,0,,,,,14.513749417001236,14.513749417001236,14.575046207999549,14.575046207999549,14.575046207999549,14.575046207999549,14.639041667000129,14.639041667000129,,,,,611418,001,2023-03-18_09h56.37.955,simple VEP,2022.2.4,None,
11,0,11,0,,,,,14.639041667000129,14.639041667000129,14.705640916999982,14.705640916999982,14.705640916999982,14.705640916999982,14.765692832999775,14.765692832999775,,,,,611418,001,2023-03-18_09h56.37.955,simple VEP,2022.2.4,None,
12,0,12,0,,,,,14.765692832999775,14.765692832999775,14.8303197919995,14.8303197919995,14.8303197919995,14.8303197919995,14.895692999998573,14.895692999998573,,,,,611418,001,2023-03-18_09h56.37.955,simple VEP,2022.2.4,None,
13,0,13,0,,,,,14.895692999998573,14.895692999998573,14.954774166999414,14.954774166999414,14.954774166999414,14.954774166999414,15.02135137499863,15.02135137499863,,,,,611418,001,2023-03-18_09h56.37.955,simple VEP,2022.2.4,None,
14,0,14,0,,,,,15.02135137499863,15.02135137499863,15.0912352919986,15.0912352919986,15.0912352919986,15.0912352919986,15.156913833001454,15.156913833001454,,,,,611418,001,2023-03-18_09h56.37.955,simple VEP,2022.2.4,None,
15,0,15,0,,,,,15.156913833001454,15.156913833001454,15.223725625000952,15.223725625000952,15.223725625000952,15.223725625000952,15.314018083001429,15.314018083001429,,,,,611418,001,2023-03-18_09h56.37.955,simple VEP,2022.2.4,None,
16,0,16,0,,,,,15.314018083001429,15.314018083001429,15.372349458000826,15.372349458000826,15.372349458000826,15.372349458000826,15.441415583001799,15.441415583001799,,,,,611418,001,2023-03-18_09h56.37.955,simple VEP,2022.2.4,None,
17,0,17,0,,,,,15.441415583001799,15.441415583001799,15.506217541998922,15.506217541998922,15.506217541998922,15.506217541998922,15.56827400000111,15.56827400000111,,,,,611418,001,2023-03-18_09h56.37.955,simple VEP,2022.2.4,None,
18,0,18,0,,,,,15.56827400000111,15.56827400000111,15.630205792000197,15.630205792000197,15.630205792000197,15.630205792000197,15.697310625000682,15.697310625000682,,,,,611418,001,2023-03-18_09h56.37.955,simple VEP,2022.2.4,None,
19,0,19,0,,,,,15.697310625000682,15.697310625000682,15.763744457999564,15.763744457999564,15.763744457999564,15.763744457999564,15.82417550000173,15.82417550000173,,,,,611418,001,2023-03-18_09h56.37.955,simple VEP,2022.2.4,None,
20,0,20,0,,,,,15.82417550000173,15.82417550000173,15.888795708000544,15.888795708000544,15.888795708000544,15.888795708000544,15.947301791999053,15.947301791999053,,,,,611418,001,2023-03-18_09h56.37.955,simple VEP,2022.2.4,None,
21,0,21,0,,,,,15.947301791999053,15.947301791999053,16.004755875001138,16.004755875001138,16.004755875001138,16.004755875001138,16.067528625000705,16.067528625000705,,,,,611418,001,2023-03-18_09h56.37.955,simple VEP,2022.2.4,None,
22,0,22,0,,,,,16.067528625000705,16.067528625000705,16.131306957999186,16.131306957999186,16.131306957999186,16.131306957999186,16.194698833001894,16.194698833001894,,,,,611418,001,2023-03-18_09h56.37.955,simple VEP,2022.2.4,None,
23,0,23,0,,,,,16.194698833001894,16.194698833001894,16.255392750001192,16.255392750001192,16.255392750001192,16.255392750001192,16.31571187499867,16.31571187499867,,,,,611418,001,2023-03-18_09h56.37.955,simple VEP,2022.2.4,None,
24,0,24,0,,,,,16.31571187499867,16.31571187499867,16.380817917000968,16.380817917000968,16.380817917000968,16.380817917000968,16.444233792000887,16.444233792000887,,,,,611418,001,2023-03-18_09h56.37.955,simple VEP,2022.2.4,None,
25,0,25,0,,,,,16.444233792000887,16.444233792000887,16.50632137499997,16.50632137499997,16.50632137499997,16.50632137499997,16.573621874998935,16.573621874998935,,,,,611418,001,2023-03-18_09h56.37.955,simple VEP,2022.2.4,None,
26,0,26,0,,,,,16.573621874998935,16.573621874998935,16.631380874998285,16.631380874998285,16.631380874998285,16.631380874998285,16.69807566700183,16.69807566700183,,,,,611418,001,2023-03-18_09h56.37.955,simple VEP,2022.2.4,None,
27,0,27,0,,,,,16.69807566700183,16.69807566700183,16.757160749999457,16.757160749999457,16.757160749999457,16.757160749999457,16.830594416998792,16.830594416998792,,,,,611418,001,2023-03-18_09h56.37.955,simple VEP,2022.2.4,None,
28,0,28,0,,,,,16.830594416998792,16.830594416998792,16.897860166998726,16.897860166998726,16.897860166998726,16.897860166998726,16.958240291998663,16.958240291998663,,,,,611418,001,2023-03-18_09h56.37.955,simple VEP,2022.2.4,None,
29,0,29,0,,,,,16.958240291998663,16.958240291998663,17.02537166700131,17.02537166700131,17.02537166700131,17.02537166700131,17.087593791999097,17.087593791999097,,,,,611418,001,2023-03-18_09h56.37.955,simple VEP,2022.2.4,None,
30,0,30,0,,,,,17.087593791999097,17.087593791999097,17.147490542000014,17.147490542000014,17.147490542000014,17.147490542000014,17.2090465830006,17.2090465830006,,,,,611418,001,2023-03-18_09h56.37.955,simple VEP,2022.2.4,None,
31,0,31,0,,,,,17.2090465830006,17.2090465830006,17.27744504200018,17.27744504200018,17.27744504200018,17.27744504200018,17.34713812499831,17.34713812499831,,,,,611418,001,2023-03-18_09h56.37.955,simple VEP,2022.2.4,None,
32,0,32,0,,,,,17.34713812499831,17.34713812499831,17.407095457998366,17.407095457998366,17.407095457998366,17.407095457998366,17.473077708000346,17.473077708000346,,,,,611418,001,2023-03-18_09h56.37.955,simple VEP,2022.2.4,None,
33,0,33,0,,,,,17.473077708000346,17.473077708000346,17.5361098329995,17.5361098329995,17.5361098329995,17.5361098329995,17.59712033300093,17.59712033300093,,,,,611418,001,2023-03-18_09h56.37.955,simple VEP,2022.2.4,None,
34,0,34,0,,,,,17.59712033300093,17.59712033300093,17.66248779200032,17.66248779200032,17.66248779200032,17.66248779200032,17.74726091699995,17.74726091699995,,,,,611418,001,2023-03-18_09h56.37.955,simple VEP,2022.2.4,None,
35,0,35,0,,,,,17.74726091699995,17.74726091699995,17.806238249999296,17.806238249999296,17.806238249999296,17.806238249999296,17.866708124998695,17.866708124998695,,,,,611418,001,2023-03-18_09h56.37.955,simple VEP,2022.2.4,None,
36,0,36,0,,,,,17.866708124998695,17.866708124998695,17.946750292001525,17.946750292001525,17.946750292001525,17.946750292001525,18.006655832999968,18.006655832999968,,,,,611418,001,2023-03-18_09h56.37.955,simple VEP,2022.2.4,None,
37,0,37,0,,,,,18.006655832999968,18.006655832999968,18.072068582998327,18.072068582998327,18.072068582998327,18.072068582998327,18.130543208000745,18.130543208000745,,,,,611418,001,2023-03-18_09h56.37.955,simple VEP,2022.2.4,None,
38,0,38,0,,,,,18.130543208000745,18.130543208000745,18.199444000001677,18.199444000001677,18.199444000001677,18.199444000001677,18.273216833000333,18.273216833000333,,,,,611418,001,2023-03-18_09h56.37.955,simple VEP,2022.2.4,None,
39,0,39,0,,,,,18.273216833000333,18.273216833000333,18.341144792000705,18.341144792000705,18.341144792000705,18.341144792000705,18.40619762500137,18.40619762500137,,,,,611418,001,2023-03-18_09h56.37.955,simple VEP,2022.2.4,None,
40,0,40,0,,,,,18.40619762500137,18.40619762500137,18.46704983300151,18.46704983300151,18.46704983300151,18.46704983300151,18.53155550000156,18.53155550000156,,,,,611418,001,2023-03-18_09h56.37.955,simple VEP,2022.2.4,None,
41,0,41,0,,,,,18.53155550000156,18.53155550000156,18.597208582999883,18.597208582999883,18.597208582999883,18.597208582999883,18.65698083299867,18.65698083299867,,,,,611418,001,2023-03-18_09h56.37.955,simple VEP,2022.2.4,None,
42,0,42,0,,,,,18.65698083299867,18.65698083299867,18.730085833001795,18.730085833001795,18.730085833001795,18.730085833001795,18.797365833001095,18.797365833001095,,,,,611418,001,2023-03-18_09h56.37.955,simple VEP,2022.2.4,None,
43,0,43,0,,,,,18.797365833001095,18.797365833001095,18.859262458001467,18.859262458001467,18.859262458001467,18.859262458001467,18.922879166999337,18.922879166999337,,,,,611418,001,2023-03-18_09h56.37.955,simple VEP,2022.2.4,None,
44,0,44,0,,,,,18.922879166999337,18.922879166999337,18.996788083000865,18.996788083000865,18.996788083000865,18.996788083000865,19.055974708000576,19.055974708000576,,,,,611418,001,2023-03-18_09h56.37.955,simple VEP,2022.2.4,None,
45,0,45,0,,,,,19.055974708000576,19.055974708000576,19.118051166999066,19.118051166999066,19.118051166999066,19.118051166999066,19.180969624998397,19.180969624998397,,,,,611418,001,2023-03-18_09h56.37.955,simple VEP,2022.2.4,None,
46,0,46,0,,,,,19.180969624998397,19.180969624998397,19.247606291999546,19.247606291999546,19.247606291999546,19.247606291999546,19.30876170800184,19.30876170800184,,,,,611418,001,2023-03-18_09h56.37.955,simple VEP,2022.2.4,None,
47,0,47,0,,,,,19.30876170800184,19.30876170800184,19.375638292000076,19.375638292000076,19.375638292000076,19.375638292000076,19.43436358300096,19.43436358300096,,,,,611418,001,2023-03-18_09h56.37.955,simple VEP,2022.2.4,None,
48,0,48,0,,,,,19.43436358300096,19.43436358300096,19.497396499999013,19.497396499999013,19.497396499999013,19.497396499999013,19.563751624998986,19.563751624998986,,,,,611418,001,2023-03-18_09h56.37.955,simple VEP,2022.2.4,None,
49,0,49,0,,,,,19.563751624998986,19.563751624998986,19.62195050000082,19.62195050000082,19.62195050000082,19.62195050000082,19.685167999999976,19.685167999999976,,,,,611418,001,2023-03-18_09h56.37.955,simple VEP,2022.2.4,None,
50,0,50,0,,,,,19.685167999999976,19.685167999999976,19.748524333001114,19.748524333001114,19.748524333001114,19.748524333001114,19.816399416999047,19.816399416999047,,,,,611418,001,2023-03-18_09h56.37.955,simple VEP,2022.2.4,None,
51,0,51,0,,,,,19.816399416999047,19.816399416999047,19.87879087500187,19.87879087500187,19.87879087500187,19.87879087500187,19.93937087499944,19.93937087499944,,,,,611418,001,2023-03-18_09h56.37.955,simple VEP,2022.2.4,None,
52,0,52,0,,,,,19.93937087499944,19.93937087499944,20.005663749998348,20.005663749998348,20.005663749998348,20.005663749998348,20.07038908300092,20.07038908300092,,,,,611418,001,2023-03-18_09h56.37.955,simple VEP,2022.2.4,None,
53,0,53,0,,,,,20.07038908300092,20.07038908300092,20.132820250000805,20.132820250000805,20.132820250000805,20.132820250000805,20.19736191699849,20.19736191699849,,,,,611418,001,2023-03-18_09h56.37.955,simple VEP,2022.2.4,None,
54,0,54,0,,,,,20.19736191699849,20.19736191699849,20.253732583001693,20.253732583001693,20.253732583001693,20.253732583001693,20.315166500000487,20.315166500000487,,,,,611418,001,2023-03-18_09h56.37.955,simple VEP,2022.2.4,None,
55,0,55,0,,,,,20.315166500000487,20.315166500000487,20.386705542001437,20.386705542001437,20.386705542001437,20.386705542001437,20.450947666999127,20.450947666999127,,,,,611418,001,2023-03-18_09h56.37.955,simple VEP,2022.2.4,None,
56,0,56,0,,,,,20.450947666999127,20.450947666999127,20.51491758300108,20.51491758300108,20.51491758300108,20.51491758300108,20.58020241700069,20.58020241700069,,,,,611418,001,2023-03-18_09h56.37.955,simple VEP,2022.2.4,None,
57,0,57,0,,,,,20.58020241700069,20.58020241700069,20.640980083000613,20.640980083000613,20.640980083000613,20.640980083000613,20.707232166998438,20.707232166998438,,,,,611418,001,2023-03-18_09h56.37.955,simple VEP,2022.2.4,None,
58,0,58,0,,,,,20.707232166998438,20.707232166998438,20.78058837500066,20.78058837500066,20.78058837500066,20.78058837500066,20.840198792000592,20.840198792000592,,,,,611418,001,2023-03-18_09h56.37.955,simple VEP,2022.2.4,None,
59,0,59,0,,,,,20.840198792000592,20.840198792000592,20.904031958001724,20.904031958001724,20.904031958001724,20.904031958001724,20.964718916999118,20.964718916999118,,,,,611418,001,2023-03-18_09h56.37.955,simple VEP,2022.2.4,None,
60,0,60,0,,,,,20.964718916999118,20.964718916999118,21.025224042001355,21.025224042001355,21.025224042001355,21.025224042001355,21.08997279200048,21.08997279200048,,,,,611418,001,2023-03-18_09h56.37.955,simple VEP,2022.2.4,None,
61,0,61,0,,,,,21.08997279200048,21.08997279200048,21.155819042000076,21.155819042000076,21.155819042000076,21.155819042000076,21.215695999999298,21.215695999999298,,,,,611418,001,2023-03-18_09h56.37.955,simple VEP,2022.2.4,None,
62,0,62,0,,,,,21.215695999999298,21.215695999999298,21.279536792000727,21.279536792000727,21.279536792000727,21.279536792000727,21.343904917001055,21.343904917001055,,,,,611418,001,2023-03-18_09h56.37.955,simple VEP,2022.2.4,None,
63,0,63,0,,,,,21.343904917001055,21.343904917001055,21.405307542001538,21.405307542001538,21.405307542001538,21.405307542001538,21.480088917000103,21.480088917000103,,,,,611418,001,2023-03-18_09h56.37.955,simple VEP,2022.2.4,None,
64,0,64,0,,,,,21.480088917000103,21.480088917000103,21.539858791998995,21.539858791998995,21.539858791998995,21.539858791998995,21.60248395799863,21.60248395799863,,,,,611418,001,2023-03-18_09h56.37.955,simple VEP,2022.2.4,None,
65,0,65,0,,,,,21.60248395799863,21.60248395799863,21.66339841700028,21.66339841700028,21.66339841700028,21.66339841700028,21.72290691699891,21.72290691699891,,,,,611418,001,2023-03-18_09h56.37.955,simple VEP,2022.2.4,None,
66,0,66,0,,,,,21.72290691699891,21.72290691699891,21.78038525000011,21.78038525000011,21.78038525000011,21.78038525000011,21.83972637500119,21.83972637500119,,,,,611418,001,2023-03-18_09h56.37.955,simple VEP,2022.2.4,None,
67,0,67,0,,,,,21.83972637500119,21.83972637500119,21.903860166999948,21.903860166999948,21.903860166999948,21.903860166999948,21.963703458000964,21.963703458000964,,,,,611418,001,2023-03-18_09h56.37.955,simple VEP,2022.2.4,None,
68,0,68,0,,,,,21.963703458000964,21.963703458000964,22.025770749998628,22.025770749998628,22.025770749998628,22.025770749998628,22.08999354199841,22.08999354199841,,,,,611418,001,2023-03-18_09h56.37.955,simple VEP,2022.2.4,None,
69,0,69,0,,,,,22.08999354199841,22.08999354199841,22.15887437499987,22.15887437499987,22.15887437499987,22.15887437499987,22.221949499999027,22.221949499999027,,,,,611418,001,2023-03-18_09h56.37.955,simple VEP,2022.2.4,None,
70,0,70,0,,,,,22.221949499999027,22.221949499999027,22.28153491700141,22.28153491700141,22.28153491700141,22.28153491700141,22.348197708000953,22.348197708000953,,,,,611418,001,2023-03-18_09h56.37.955,simple VEP,2022.2.4,None,
71,0,71,0,,,,,22.348197708000953,22.348197708000953,22.405248167000536,22.405248167000536,22.405248167000536,22.405248167000536,22.473462375000963,22.473462375000963,,,,,611418,001,2023-03-18_09h56.37.955,simple VEP,2022.2.4,None,
72,0,72,0,,,,,22.473462375000963,22.473462375000963,22.539404167000612,22.539404167000612,22.539404167000612,22.539404167000612,22.60049537500163,22.60049537500163,,,,,611418,001,2023-03-18_09h56.37.955,simple VEP,2022.2.4,None,
73,0,73,0,,,,,22.60049537500163,22.60049537500163,22.663622583000688,22.663622583000688,22.663622583000688,22.663622583000688,22.72206450000158,22.72206450000158,,,,,611418,001,2023-03-18_09h56.37.955,simple VEP,2022.2.4,None,
74,0,74,0,,,,,22.72206450000158,22.72206450000158,22.79877116699936,22.79877116699936,22.79877116699936,22.79877116699936,22.86297362500045,22.86297362500045,,,,,611418,001,2023-03-18_09h56.37.955,simple VEP,2022.2.4,None,
75,0,75,0,,,,,22.86297362500045,22.86297362500045,22.926099374999467,22.926099374999467,22.926099374999467,22.926099374999467,22.990107707999414,22.990107707999414,,,,,611418,001,2023-03-18_09h56.37.955,simple VEP,2022.2.4,None,
76,0,76,0,,,,,22.990107707999414,22.990107707999414,23.05070720799995,23.05070720799995,23.05070720799995,23.05070720799995,23.113780542000313,23.113780542000313,,,,,611418,001,2023-03-18_09h56.37.955,simple VEP,2022.2.4,None,
77,0,77,0,,,,,23.113780542000313,23.113780542000313,23.17534112499925,23.17534112499925,23.17534112499925,23.17534112499925,23.239431250000052,23.239431250000052,,,,,611418,001,2023-03-18_09h56.37.955,simple VEP,2022.2.4,None,
78,0,78,0,,,,,23.239431250000052,23.239431250000052,23.305677708001895,23.305677708001895,23.305677708001895,23.305677708001895,23.368434957999852,23.368434957999852,,,,,611418,001,2023-03-18_09h56.37.955,simple VEP,2022.2.4,None,
79,0,79,0,,,,,23.368434957999852,23.368434957999852,23.430787833000068,23.430787833000068,23.430787833000068,23.430787833000068,23.490567542001372,23.490567542001372,,,,,611418,001,2023-03-18_09h56.37.955,simple VEP,2022.2.4,None,
80,0,80,0,,,,,23.490567542001372,23.490567542001372,23.548202000001766,23.548202000001766,23.548202000001766,23.548202000001766,23.614350250001735,23.614350250001735,,,,,611418,001,2023-03-18_09h56.37.955,simple VEP,2022.2.4,None,
81,0,81,0,,,,,23.614350250001735,23.614350250001735,23.68035583299934,23.68035583299934,23.68035583299934,23.68035583299934,23.740157917000033,23.740157917000033,,,,,611418,001,2023-03-18_09h56.37.955,simple VEP,2022.2.4,None,
82,0,82,0,,,,,23.740157917000033,23.740157917000033,23.804966208001133,23.804966208001133,23.804966208001133,23.804966208001133,23.86358950000067,23.86358950000067,,,,,611418,001,2023-03-18_09h56.37.955,simple VEP,2022.2.4,None,
83,0,83,0,,,,,23.86358950000067,23.86358950000067,23.94722045800154,23.94722045800154,23.94722045800154,23.94722045800154,24.00483954200172,24.00483954200172,,,,,611418,001,2023-03-18_09h56.37.955,simple VEP,2022.2.4,None,
84,0,84,0,,,,,24.00483954200172,24.00483954200172,24.06389733299875,24.06389733299875,24.06389733299875,24.06389733299875,24.125962292000622,24.125962292000622,,,,,611418,001,2023-03-18_09h56.37.955,simple VEP,2022.2.4,None,
85,0,85,0,,,,,24.125962292000622,24.125962292000622,24.193818083000224,24.193818083000224,24.193818083000224,24.193818083000224,24.256215375000465,24.256215375000465,,,,,611418,001,2023-03-18_09h56.37.955,simple VEP,2022.2.4,None,
86,0,86,0,,,,,24.256215375000465,24.256215375000465,24.328097333000187,24.328097333000187,24.328097333000187,24.328097333000187,24.38736358299866,24.38736358299866,,,,,611418,001,2023-03-18_09h56.37.955,simple VEP,2022.2.4,None,
87,0,87,0,,,,,24.38736358299866,24.38736358299866,24.447281500000827,24.447281500000827,24.447281500000827,24.447281500000827,24.510340791999624,24.510340791999624,,,,,611418,001,2023-03-18_09h56.37.955,simple VEP,2022.2.4,None,
88,0,88,0,,,,,24.510340791999624,24.510340791999624,24.571987250001257,24.571987250001257,24.571987250001257,24.571987250001257,24.631888332998642,24.631888332998642,,,,,611418,001,2023-03-18_09h56.37.955,simple VEP,2022.2.4,None,
89,0,89,0,,,,,24.631888332998642,24.631888332998642,24.690154749998328,24.690154749998328,24.690154749998328,24.690154749998328,24.75124470800074,24.75124470800074,,,,,611418,001,2023-03-18_09h56.37.955,simple VEP,2022.2.4,None,
90,0,90,0,,,,,24.75124470800074,24.75124470800074,24.81390824999835,24.81390824999835,24.81390824999835,24.81390824999835,24.87551095800154,24.87551095800154,,,,,611418,001,2023-03-18_09h56.37.955,simple VEP,2022.2.4,None,
91,0,91,0,,,,,24.87551095800154,24.87551095800154,24.938295167001343,24.938295167001343,24.938295167001343,24.938295167001343,25.005456667000544,25.005456667000544,,,,,611418,001,2023-03-18_09h56.37.955,simple VEP,2022.2.4,None,
92,0,92,0,,,,,25.005456667000544,25.005456667000544,25.080650791998778,25.080650791998778,25.080650791998778,25.080650791998778,25.13980229200024,25.13980229200024,,,,,611418,001,2023-03-18_09h56.37.955,simple VEP,2022.2.4,None,
93,0,93,0,,,,,25.13980229200024,25.13980229200024,25.2094938750015,25.2094938750015,25.2094938750015,25.2094938750015,25.274062042000878,25.274062042000878,,,,,611418,001,2023-03-18_09h56.37.955,simple VEP,2022.2.4,None,
94,0,94,0,,,,,25.274062042000878,25.274062042000878,25.34144416699928,25.34144416699928,25.34144416699928,25.34144416699928,25.406119499999477,25.406119499999477,,,,,611418,001,2023-03-18_09h56.37.955,simple VEP,2022.2.4,None,
95,0,95,0,,,,,25.406119499999477,25.406119499999477,25.475425332999293,25.475425332999293,25.475425332999293,25.475425332999293,25.539679417001025,25.539679417001025,,,,,611418,001,2023-03-18_09h56.37.955,simple VEP,2022.2.4,None,
96,0,96,0,,,,,25.539679417001025,25.539679417001025,25.605687582999963,25.605687582999963,25.605687582999963,25.605687582999963,25.66837037499863,25.66837037499863,,,,,611418,001,2023-03-18_09h56.37.955,simple VEP,2022.2.4,None,
97,0,97,0,,,,,25.66837037499863,25.66837037499863,25.731278833001852,25.731278833001852,25.731278833001852,25.731278833001852,25.789582875000633,25.789582875000633,,,,,611418,001,2023-03-18_09h56.37.955,simple VEP,2022.2.4,None,
98,0,98,0,,,,,25.789582875000633,25.789582875000633,25.85239279199959,25.85239279199959,25.85239279199959,25.85239279199959,25.913843624999572,25.913843624999572,,,,,611418,001,2023-03-18_09h56.37.955,simple VEP,2022.2.4,None,
99,0,99,0,,,,,25.913843624999572,25.913843624999572,25.97134320799887,25.97134320799887,25.97134320799887,25.97134320799887,26.030916374998924,26.030916374998924,,,,,611418,001,2023-03-18_09h56.37.955,simple VEP,2022.2.4,None,
100,0,100,0,,,,,26.030916374998924,26.030916374998924,26.09170449999874,26.09170449999874,26.09170449999874,26.09170449999874,26.155114666998998,26.155114666998998,,,,,611418,001,2023-03-18_09h56.37.955,simple VEP,2022.2.4,None,
101,0,101,0,,,,,26.155114666998998,26.155114666998998,26.22416499999963,26.22416499999963,26.22416499999963,26.22416499999963,26.29070391699861,26.29070391699861,,,,,611418,001,2023-03-18_09h56.37.955,simple VEP,2022.2.4,None,
102,0,102,0,,,,,26.29070391699861,26.29070391699861,26.35546695800076,26.35546695800076,26.35546695800076,26.35546695800076,26.41770437499872,26.41770437499872,,,,,611418,001,2023-03-18_09h56.37.955,simple VEP,2022.2.4,None,
103,0,103,0,,,,,26.41770437499872,26.41770437499872,26.48042629200063,26.48042629200063,26.48042629200063,26.48042629200063,26.545617832998687,26.545617832998687,,,,,611418,001,2023-03-18_09h56.37.955,simple VEP,2022.2.4,None,
104,0,104,0,,,,,26.545617832998687,26.545617832998687,26.605081249999785,26.605081249999785,26.605081249999785,26.605081249999785,26.669168791999255,26.669168791999255,,,,,611418,001,2023-03-18_09h56.37.955,simple VEP,2022.2.4,None,
105,0,105,0,,,,,26.669168791999255,26.669168791999255,26.730335625001317,26.730335625001317,26.730335625001317,26.730335625001317,26.789500957998825,26.789500957998825,,,,,611418,001,2023-03-18_09h56.37.955,simple VEP,2022.2.4,None,
106,0,106,0,,,,,26.789500957998825,26.789500957998825,26.863917833001324,26.863917833001324,26.863917833001324,26.863917833001324,26.922763333001058,26.922763333001058,,,,,611418,001,2023-03-18_09h56.37.955,simple VEP,2022.2.4,None,
107,0,107,0,,,,,26.922763333001058,26.922763333001058,26.980098042000463,26.980098042000463,26.980098042000463,26.980098042000463,27.038706208000804,27.038706208000804,,,,,611418,001,2023-03-18_09h56.37.955,simple VEP,2022.2.4,None,
108,0,108,0,,,,,27.038706208000804,27.038706208000804,27.099664542001847,27.099664542001847,27.099664542001847,27.099664542001847,27.165248666999105,27.165248666999105,,,,,611418,001,2023-03-18_09h56.37.955,simple VEP,2022.2.4,None,
109,0,109,0,,,,,27.165248666999105,27.165248666999105,27.23574258300141,27.23574258300141,27.23574258300141,27.23574258300141,27.29707445800159,27.29707445800159,,,,,611418,001,2023-03-18_09h56.37.955,simple VEP,2022.2.4,None,
110,0,110,0,,,,,27.29707445800159,27.29707445800159,27.355496667001717,27.355496667001717,27.355496667001717,27.355496667001717,27.418391833001806,27.418391833001806,,,,,611418,001,2023-03-18_09h56.37.955,simple VEP,2022.2.4,None,
111,0,111,0,,,,,27.418391833001806,27.418391833001806,27.480174125001213,27.480174125001213,27.480174125001213,27.480174125001213,27.541086166998866,27.541086166998866,,,,,611418,001,2023-03-18_09h56.37.955,simple VEP,2022.2.4,None,
112,0,112,0,,,,,27.541086166998866,27.541086166998866,27.608248374999675,27.608248374999675,27.608248374999675,27.608248374999675,27.6757265419983,27.6757265419983,,,,,611418,001,2023-03-18_09h56.37.955,simple VEP,2022.2.4,None,
113,0,113,0,,,,,27.6757265419983,27.6757265419983,27.73788437500116,27.73788437500116,27.73788437500116,27.73788437500116,27.807362208000995,27.807362208000995,,,,,611418,001,2023-03-18_09h56.37.955,simple VEP,2022.2.4,None,
114,0,114,0,,,,,27.807362208000995,27.807362208000995,27.87093399999867,27.87093399999867,27.87093399999867,27.87093399999867,27.930084208001063,27.930084208001063,,,,,611418,001,2023-03-18_09h56.37.955,simple VEP,2022.2.4,None,
115,0,115,0,,,,,27.930084208001063,27.930084208001063,28.015393041998323,28.015393041998323,28.015393041998323,28.015393041998323,28.08066712499931,28.08066712499931,,,,,611418,001,2023-03-18_09h56.37.955,simple VEP,2022.2.4,None,
116,0,116,0,,,,,28.08066712499931,28.08066712499931,28.142251500001294,28.142251500001294,28.142251500001294,28.142251500001294,28.206454125000164,28.206454125000164,,,,,611418,001,2023-03-18_09h56.37.955,simple VEP,2022.2.4,None,
117,0,117,0,,,,,28.206454125000164,28.206454125000164,28.267542207999213,28.267542207999213,28.267542207999213,28.267542207999213,28.331140250000317,28.331140250000317,,,,,611418,001,2023-03-18_09h56.37.955,simple VEP,2022.2.4,None,
118,0,118,0,,,,,28.331140250000317,28.331140250000317,28.389479458001006,28.389479458001006,28.389479458001006,28.389479458001006,28.448087374999886,28.448087374999886,,,,,611418,001,2023-03-18_09h56.37.955,simple VEP,2022.2.4,None,
119,0,119,0,,,,,28.448087374999886,28.448087374999886,28.50646366699948,28.50646366699948,28.50646366699948,28.50646366699948,28.575956707998557,28.575956707998557,,,,,611418,001,2023-03-18_09h56.37.955,simple VEP,2022.2.4,None,
120,0,120,0,,,,,28.575956707998557,28.575956707998557,28.638620041998365,28.638620041998365,28.638620041998365,28.638620041998365,28.70669029200144,28.70669029200144,,,,,611418,001,2023-03-18_09h56.37.955,simple VEP,2022.2.4,None,
121,0,121,0,,,,,28.70669029200144,28.70669029200144,28.77180112499991,28.77180112499991,28.77180112499991,28.77180112499991,28.830536833000224,28.830536833000224,,,,,611418,001,2023-03-18_09h56.37.955,simple VEP,2022.2.4,None,
122,0,122,0,,,,,28.830536833000224,28.830536833000224,28.8866170830006,28.8866170830006,28.8866170830006,28.8866170830006,28.94620033300089,28.94620033300089,,,,,611418,001,2023-03-18_09h56.37.955,simple VEP,2022.2.4,None,
123,0,123,0,,,,,28.94620033300089,28.94620033300089,29.0063553330001,29.0063553330001,29.0063553330001,29.0063553330001,29.07174458300142,29.07174458300142,,,,,611418,001,2023-03-18_09h56.37.955,simple VEP,2022.2.4,None,
124,0,124,0,,,,,29.07174458300142,29.07174458300142,29.135654833000444,29.135654833000444,29.135654833000444,29.135654833000444,29.199565124999936,29.199565124999936,,,,,611418,001,2023-03-18_09h56.37.955,simple VEP,2022.2.4,None,
125,0,125,0,,,,,29.199565124999936,29.199565124999936,29.25851862499985,29.25851862499985,29.25851862499985,29.25851862499985,29.325285416998668,29.325285416998668,,,,,611418,001,2023-03-18_09h56.37.955,simple VEP,2022.2.4,None,
126,0,126,0,,,,,29.325285416998668,29.325285416998668,29.38831025000036,29.38831025000036,29.38831025000036,29.38831025000036,29.463479499998357,29.463479499998357,,,,,611418,001,2023-03-18_09h56.37.955,simple VEP,2022.2.4,None,
127,0,127,0,,,,,29.463479499998357,29.463479499998357,29.52194049999889,29.52194049999889,29.52194049999889,29.52194049999889,29.599459291999665,29.599459291999665,,,,,611418,001,2023-03-18_09h56.37.955,simple VEP,2022.2.4,None,
128,0,128,0,,,,,29.599459291999665,29.599459291999665,29.662844208000024,29.662844208000024,29.662844208000024,29.662844208000024,29.73068287500064,29.73068287500064,,,,,611418,001,2023-03-18_09h56.37.955,simple VEP,2022.2.4,None,
129,0,129,0,,,,,29.73068287500064,29.73068287500064,29.789686457999778,29.789686457999778,29.789686457999778,29.789686457999778,29.855840416999854,29.855840416999854,,,,,611418,001,2023-03-18_09h56.37.955,simple VEP,2022.2.4,None,
130,0,130,0,,,,,29.855840416999854,29.855840416999854,29.91556358299931,29.91556358299931,29.91556358299931,29.91556358299931,29.979531749999296,29.979531749999296,,,,,611418,001,2023-03-18_09h56.37.955,simple VEP,2022.2.4,None,
131,0,131,0,,,,,29.979531749999296,29.979531749999296,30.04151795800135,30.04151795800135,30.04151795800135,30.04151795800135,30.10611187500035,30.10611187500035,,,,,611418,001,2023-03-18_09h56.37.955,simple VEP,2022.2.4,None,
132,0,132,0,,,,,30.10611187500035,30.10611187500035,30.17465358299887,30.17465358299887,30.17465358299887,30.17465358299887,30.23850725000011,30.23850725000011,,,,,611418,001,2023-03-18_09h56.37.955,simple VEP,2022.2.4,None,
133,0,133,0,,,,,30.23850725000011,30.23850725000011,30.307916375000787,30.307916375000787,30.307916375000787,30.307916375000787,30.37261458300054,30.37261458300054,,,,,611418,001,2023-03-18_09h56.37.955,simple VEP,2022.2.4,None,
134,0,134,0,,,,,30.37261458300054,30.37261458300054,30.43968720799967,30.43968720799967,30.43968720799967,30.43968720799967,30.500773457999458,30.500773457999458,,,,,611418,001,2023-03-18_09h56.37.955,simple VEP,2022.2.4,None,
135,0,135,0,,,,,30.500773457999458,30.500773457999458,30.566039291999914,30.566039291999914,30.566039291999914,30.566039291999914,30.624774874999275,30.624774874999275,,,,,611418,001,2023-03-18_09h56.37.955,simple VEP,2022.2.4,None,
136,0,136,0,,,,,30.624774874999275,30.624774874999275,30.688371500000358,30.688371500000358,30.688371500000358,30.688371500000358,30.747607124998467,30.747607124998467,,,,,611418,001,2023-03-18_09h56.37.955,simple VEP,2022.2.4,None,
137,0,137,0,,,,,30.747607124998467,30.747607124998467,30.80516204200103,30.80516204200103,30.80516204200103,30.80516204200103,30.86818216699976,30.86818216699976,,,,,611418,001,2023-03-18_09h56.37.955,simple VEP,2022.2.4,None,
138,0,138,0,,,,,30.86818216699976,30.86818216699976,30.930312291999144,30.930312291999144,30.930312291999144,30.930312291999144,30.98708458300098,30.98708458300098,,,,,611418,001,2023-03-18_09h56.37.955,simple VEP,2022.2.4,None,
139,0,139,0,,,,,30.98708458300098,30.98708458300098,31.049929042001168,31.049929042001168,31.049929042001168,31.049929042001168,31.113743582998723,31.113743582998723,,,,,611418,001,2023-03-18_09h56.37.955,simple VEP,2022.2.4,None,
140,0,140,0,,,,,31.113743582998723,31.113743582998723,31.18075120800131,31.18075120800131,31.18075120800131,31.18075120800131,31.239589625001827,31.239589625001827,,,,,611418,001,2023-03-18_09h56.37.955,simple VEP,2022.2.4,None,
141,0,141,0,,,,,31.239589625001827,31.239589625001827,31.300189582998428,31.300189582998428,31.300189582998428,31.300189582998428,31.367774624999583,31.367774624999583,,,,,611418,001,2023-03-18_09h56.37.955,simple VEP,2022.2.4,None,
142,0,142,0,,,,,31.367774624999583,31.367774624999583,31.429618250000203,31.429618250000203,31.429618250000203,31.429618250000203,31.497448207999696,31.497448207999696,,,,,611418,001,2023-03-18_09h56.37.955,simple VEP,2022.2.4,None,
143,0,143,0,,,,,31.497448207999696,31.497448207999696,31.55607158299972,31.55607158299972,31.55607158299972,31.55607158299972,31.621838667000702,31.621838667000702,,,,,611418,001,2023-03-18_09h56.37.955,simple VEP,2022.2.4,None,
144,0,144,0,,,,,31.621838667000702,31.621838667000702,31.683406500000274,31.683406500000274,31.683406500000274,31.683406500000274,31.74972995799908,31.74972995799908,,,,,611418,001,2023-03-18_09h56.37.955,simple VEP,2022.2.4,None,
145,0,145,0,,,,,31.74972995799908,31.74972995799908,31.81453487500039,31.81453487500039,31.81453487500039,31.81453487500039,31.880604000001767,31.880604000001767,,,,,611418,001,2023-03-18_09h56.37.955,simple VEP,2022.2.4,None,
146,0,146,0,,,,,31.880604000001767,31.880604000001767,31.94723737499953,31.94723737499953,31.94723737499953,31.94723737499953,32.006427874999645,32.006427874999645,,,,,611418,001,2023-03-18_09h56.37.955,simple VEP,2022.2.4,None,
147,0,147,0,,,,,32.006427874999645,32.006427874999645,32.06631558300069,32.06631558300069,32.06631558300069,32.06631558300069,32.13125166700047,32.13125166700047,,,,,611418,001,2023-03-18_09h56.37.955,simple VEP,2022.2.4,None,
148,0,148,0,,,,,32.13125166700047,32.13125166700047,32.19794462500067,32.19794462500067,32.19794462500067,32.19794462500067,32.26472383299915,32.26472383299915,,,,,611418,001,2023-03-18_09h56.37.955,simple VEP,2022.2.4,None,
149,0,149,0,,,,,32.26472383299915,32.26472383299915,32.32225745799951,32.32225745799951,32.32225745799951,32.32225745799951,32.3862639580002,32.3862639580002,,,,,611418,001,2023-03-18_09h56.37.955,simple VEP,2022.2.4,None,
,,,,0,0,0,0,,,,,,,,,32.3862639580002,35.380461542001285,35.380461542001285,35.43799429199862,611418,001,2023-03-18_09h56.37.955,simple VEP,2022.2.4,None,
,,,,1,0,1,0,,,,,,,,,,,35.43799429199862,35.49695137500021,611418,001,2023-03-18_09h56.37.955,simple VEP,2022.2.4,None,
,,,,2,0,2,0,,,,,,,,,,,35.49695137500021,35.55424183300056,611418,001,2023-03-18_09h56.37.955,simple VEP,2022.2.4,None,
,,,,3,0,3,0,,,,,,,,,,,35.55424183300056,35.62320754200118,611418,001,2023-03-18_09h56.37.955,simple VEP,2022.2.4,None,
,,,,4,0,4,0,,,,,,,,,,,35.62320754200118,35.689390374998766,611418,001,2023-03-18_09h56.37.955,simple VEP,2022.2.4,None,
,,,,5,0,5,0,,,,,,,,,,,35.689390374998766,35.754239541998686,611418,001,2023-03-18_09h56.37.955,simple VEP,2022.2.4,None,
,,,,6,0,6,0,,,,,,,,,,,35.754239541998686,35.8134502920002,611418,001,2023-03-18_09h56.37.955,simple VEP,2022.2.4,None,
,,,,7,0,7,0,,,,,,,,,,,35.8134502920002,35.87013379199925,611418,001,2023-03-18_09h56.37.955,simple VEP,2022.2.4,None,
,,,,8,0,8,0,,,,,,,,,,,35.87013379199925,35.930452625001635,611418,001,2023-03-18_09h56.37.955,simple VEP,2022.2.4,None,
,,,,9,0,9,0,,,,,,,,,,,35.930452625001635,35.989263750001555,611418,001,2023-03-18_09h56.37.955,simple VEP,2022.2.4,None,
,,,,10,0,10,0,,,,,,,,,,,35.989263750001555,36.055888167000376,611418,001,2023-03-18_09h56.37.955,simple VEP,2022.2.4,None,
,,,,11,0,11,0,,,,,,,,,,,36.055888167000376,36.11467004199949,611418,001,2023-03-18_09h56.37.955,simple VEP,2022.2.4,None,
,,,,12,0,12,0,,,,,,,,,,,36.11467004199949,36.1756897080013,611418,001,2023-03-18_09h56.37.955,simple VEP,2022.2.4,None,
,,,,13,0,13,0,,,,,,,,,,,36.1756897080013,36.23953037500178,611418,001,2023-03-18_09h56.37.955,simple VEP,2022.2.4,None,
,,,,14,0,14,0,,,,,,,,,,,36.23953037500178,36.30405420800162,611418,001,2023-03-18_09h56.37.955,simple VEP,2022.2.4,None,
,,,,15,0,15,0,,,,,,,,,,,36.30405420800162,36.37330762499914,611418,001,2023-03-18_09h56.37.955,simple VEP,2022.2.4,None,
,,,,16,0,16,0,,,,,,,,,,,36.37330762499914,36.43789279200064,611418,001,2023-03-18_09h56.37.955,simple VEP,2022.2.4,None,
,,,,17,0,17,0,,,,,,,,,,,36.43789279200064,36.49695379200057,611418,001,2023-03-18_09h56.37.955,simple VEP,2022.2.4,None,
,,,,18,0,18,0,,,,,,,,,,,36.49695379200057,36.557012833000044,611418,001,2023-03-18_09h56.37.955,simple VEP,2022.2.4,None,
,,,,19,0,19,0,,,,,,,,,,,36.557012833000044,36.62147895800081,611418,001,2023-03-18_09h56.37.955,simple VEP,2022.2.4,None,
,,,,20,0,20,0,,,,,,,,,,,36.62147895800081,36.688492833000055,611418,001,2023-03-18_09h56.37.955,simple VEP,2022.2.4,None,
,,,,21,0,21,0,,,,,,,,,,,36.688492833000055,36.74723237500075,611418,001,2023-03-18_09h56.37.955,simple VEP,2022.2.4,None,
,,,,22,0,22,0,,,,,,,,,,,36.74723237500075,36.80472683300104,611418,001,2023-03-18_09h56.37.955,simple VEP,2022.2.4,None,
,,,,23,0,23,0,,,,,,,,,,,36.80472683300104,36.86389079199944,611418,001,2023-03-18_09h56.37.955,simple VEP,2022.2.4,None,
,,,,24,0,24,0,,,,,,,,,,,36.86389079199944,36.924321375001455,611418,001,2023-03-18_09h56.37.955,simple VEP,2022.2.4,None,
,,,,25,0,25,0,,,,,,,,,,,36.924321375001455,36.98945445799836,611418,001,2023-03-18_09h56.37.955,simple VEP,2022.2.4,None,
,,,,26,0,26,0,,,,,,,,,,,36.98945445799836,37.05588337500012,611418,001,2023-03-18_09h56.37.955,simple VEP,2022.2.4,None,
,,,,27,0,27,0,,,,,,,,,,,37.05588337500012,37.1226625829986,611418,001,2023-03-18_09h56.37.955,simple VEP,2022.2.4,None,
,,,,28,0,28,0,,,,,,,,,,,37.1226625829986,37.18668145799893,611418,001,2023-03-18_09h56.37.955,simple VEP,2022.2.4,None,
,,,,29,0,29,0,,,,,,,,,,,37.18668145799893,37.24710679200143,611418,001,2023-03-18_09h56.37.955,simple VEP,2022.2.4,None,
,,,,30,0,30,0,,,,,,,,,,,37.24710679200143,37.308760291998624,611418,001,2023-03-18_09h56.37.955,simple VEP,2022.2.4,None,
,,,,31,0,31,0,,,,,,,,,,,37.308760291998624,37.37032079200071,611418,001,2023-03-18_09h56.37.955,simple VEP,2022.2.4,None,
,,,,32,0,32,0,,,,,,,,,,,37.37032079200071,37.43017758299902,611418,001,2023-03-18_09h56.37.955,simple VEP,2022.2.4,None,
,,,,33,0,33,0,,,,,,,,,,,37.43017758299902,37.48846204200163,611418,001,2023-03-18_09h56.37.955,simple VEP,2022.2.4,None,
,,,,34,0,34,0,,,,,,,,,,,37.48846204200163,37.55547087499872,611418,001,2023-03-18_09h56.37.955,simple VEP,2022.2.4,None,
,,,,35,0,35,0,,,,,,,,,,,37.55547087499872,37.61460641699887,611418,001,2023-03-18_09h56.37.955,simple VEP,2022.2.4,None,
,,,,36,0,36,0,,,,,,,,,,,37.61460641699887,37.67330391699943,611418,001,2023-03-18_09h56.37.955,simple VEP,2022.2.4,None,
,,,,37,0,37,0,,,,,,,,,,,37.67330391699943,37.73767450000014,611418,001,2023-03-18_09h56.37.955,simple VEP,2022.2.4,None,
,,,,38,0,38,0,,,,,,,,,,,37.73767450000014,37.80469883299884,611418,001,2023-03-18_09h56.37.955,simple VEP,2022.2.4,None,
,,,,39,0,39,0,,,,,,,,,,,37.80469883299884,37.873308375001216,611418,001,2023-03-18_09h56.37.955,simple VEP,2022.2.4,None,
,,,,40,0,40,0,,,,,,,,,,,37.873308375001216,37.941164291998575,611418,001,2023-03-18_09h56.37.955,simple VEP,2022.2.4,None,
,,,,41,0,41,0,,,,,,,,,,,37.941164291998575,38.006169208001666,611418,001,2023-03-18_09h56.37.955,simple VEP,2022.2.4,None,
,,,,42,0,42,0,,,,,,,,,,,38.006169208001666,38.072390375000396,611418,001,2023-03-18_09h56.37.955,simple VEP,2022.2.4,None,
,,,,43,0,43,0,,,,,,,,,,,38.072390375000396,38.13912741700187,611418,001,2023-03-18_09h56.37.955,simple VEP,2022.2.4,None,
,,,,44,0,44,0,,,,,,,,,,,38.13912741700187,38.20620237500043,611418,001,2023-03-18_09h56.37.955,simple VEP,2022.2.4,None,
,,,,45,0,45,0,,,,,,,,,,,38.20620237500043,38.2727426249985,611418,001,2023-03-18_09h56.37.955,simple VEP,2022.2.4,None,
,,,,46,0,46,0,,,,,,,,,,,38.2727426249985,38.33790645800036,611418,001,2023-03-18_09h56.37.955,simple VEP,2022.2.4,None,
,,,,47,0,47,0,,,,,,,,,,,38.33790645800036,38.39713425000082,611418,001,2023-03-18_09h56.37.955,simple VEP,2022.2.4,None,
,,,,48,0,48,0,,,,,,,,,,,38.39713425000082,38.45669729200017,611418,001,2023-03-18_09h56.37.955,simple VEP,2022.2.4,None,
,,,,49,0,49,0,,,,,,,,,,,38.45669729200017,38.52305145799983,611418,001,2023-03-18_09h56.37.955,simple VEP,2022.2.4,None,
,,,,50,0,50,0,,,,,,,,,,,38.52305145799983,38.58943270799864,611418,001,2023-03-18_09h56.37.955,simple VEP,2022.2.4,None,
,,,,51,0,51,0,,,,,,,,,,,38.58943270799864,38.655162667000695,611418,001,2023-03-18_09h56.37.955,simple VEP,2022.2.4,None,
,,,,52,0,52,0,,,,,,,,,,,38.655162667000695,38.72160687499854,611418,001,2023-03-18_09h56.37.955,simple VEP,2022.2.4,None,
,,,,53,0,53,0,,,,,,,,,,,38.72160687499854,38.79059770800086,611418,001,2023-03-18_09h56.37.955,simple VEP,2022.2.4,None,
,,,,54,0,54,0,,,,,,,,,,,38.79059770800086,38.85603583299962,611418,001,2023-03-18_09h56.37.955,simple VEP,2022.2.4,None,
,,,,55,0,55,0,,,,,,,,,,,38.85603583299962,38.913451749998785,611418,001,2023-03-18_09h56.37.955,simple VEP,2022.2.4,None,
,,,,56,0,56,0,,,,,,,,,,,38.913451749998785,38.97221387500031,611418,001,2023-03-18_09h56.37.955,simple VEP,2022.2.4,None,
,,,,57,0,57,0,,,,,,,,,,,38.97221387500031,39.03977416699854,611418,001,2023-03-18_09h56.37.955,simple VEP,2022.2.4,None,
,,,,58,0,58,0,,,,,,,,,,,39.03977416699854,39.1056150000004,611418,001,2023-03-18_09h56.37.955,simple VEP,2022.2.4,None,
,,,,59,0,59,0,,,,,,,,,,,39.1056150000004,39.17027662500186,611418,001,2023-03-18_09h56.37.955,simple VEP,2022.2.4,None,
,,,,60,0,60,0,,,,,,,,,,,39.17027662500186,39.23022024999955,611418,001,2023-03-18_09h56.37.955,simple VEP,2022.2.4,None,
,,,,61,0,61,0,,,,,,,,,,,39.23022024999955,39.28873520799971,611418,001,2023-03-18_09h56.37.955,simple VEP,2022.2.4,None,
,,,,62,0,62,0,,,,,,,,,,,39.28873520799971,39.34892200000104,611418,001,2023-03-18_09h56.37.955,simple VEP,2022.2.4,None,
,,,,63,0,63,0,,,,,,,,,,,39.34892200000104,39.41368566700112,611418,001,2023-03-18_09h56.37.955,simple VEP,2022.2.4,None,
,,,,64,0,64,0,,,,,,,,,,,39.41368566700112,39.47545066699968,611418,001,2023-03-18_09h56.37.955,simple VEP,2022.2.4,None,
,,,,65,0,65,0,,,,,,,,,,,39.47545066699968,39.5385973750017,611418,001,2023-03-18_09h56.37.955,simple VEP,2022.2.4,None,
,,,,66,0,66,0,,,,,,,,,,,39.5385973750017,39.60620058299901,611418,001,2023-03-18_09h56.37.955,simple VEP,2022.2.4,None,
,,,,67,0,67,0,,,,,,,,,,,39.60620058299901,39.671028249998926,611418,001,2023-03-18_09h56.37.955,simple VEP,2022.2.4,None,
,,,,68,0,68,0,,,,,,,,,,,39.671028249998926,39.739815166998596,611418,001,2023-03-18_09h56.37.955,simple VEP,2022.2.4,None,
,,,,69,0,69,0,,,,,,,,,,,39.739815166998596,39.807339292001416,611418,001,2023-03-18_09h56.37.955,simple VEP,2022.2.4,None,
,,,,70,0,70,0,,,,,,,,,,,39.807339292001416,39.87289458300074,611418,001,2023-03-18_09h56.37.955,simple VEP,2022.2.4,None,
,,,,71,0,71,0,,,,,,,,,,,39.87289458300074,39.93063887500102,611418,001,2023-03-18_09h56.37.955,simple VEP,2022.2.4,None,
,,,,72,0,72,0,,,,,,,,,,,39.93063887500102,39.989884375001566,611418,001,2023-03-18_09h56.37.955,simple VEP,2022.2.4,None,
,,,,73,0,73,0,,,,,,,,,,,39.989884375001566,40.05733420799879,611418,001,2023-03-18_09h56.37.955,simple VEP,2022.2.4,None,
,,,,74,0,74,0,,,,,,,,,,,40.05733420799879,40.1220268750003,611418,001,2023-03-18_09h56.37.955,simple VEP,2022.2.4,None,
,,,,75,0,75,0,,,,,,,,,,,40.1220268750003,40.18925883300108,611418,001,2023-03-18_09h56.37.955,simple VEP,2022.2.4,None,
,,,,76,0,76,0,,,,,,,,,,,40.18925883300108,40.257380457998806,611418,001,2023-03-18_09h56.37.955,simple VEP,2022.2.4,None,
,,,,77,0,77,0,,,,,,,,,,,40.257380457998806,40.32337620800172,611418,001,2023-03-18_09h56.37.955,simple VEP,2022.2.4,None,
,,,,78,0,78,0,,,,,,,,,,,40.32337620800172,40.38932104199921,611418,001,2023-03-18_09h56.37.955,simple VEP,2022.2.4,None,
,,,,79,0,79,0,,,,,,,,,,,40.38932104199921,40.456552708001254,611418,001,2023-03-18_09h56.37.955,simple VEP,2022.2.4,None,
,,,,80,0,80,0,,,,,,,,,,,40.456552708001254,40.53045004199885,611418,001,2023-03-18_09h56.37.955,simple VEP,2022.2.4,None,
,,,,81,0,81,0,,,,,,,,,,,40.53045004199885,40.58619079200071,611418,001,2023-03-18_09h56.37.955,simple VEP,2022.2.4,None,
,,,,82,0,82,0,,,,,,,,,,,40.58619079200071,40.64980966700023,611418,001,2023-03-18_09h56.37.955,simple VEP,2022.2.4,None,
,,,,83,0,83,0,,,,,,,,,,,40.64980966700023,40.714013207998505,611418,001,2023-03-18_09h56.37.955,simple VEP,2022.2.4,None,
,,,,84,0,84,0,,,,,,,,,,,40.714013207998505,40.780316416999995,611418,001,2023-03-18_09h56.37.955,simple VEP,2022.2.4,None,
,,,,85,0,85,0,,,,,,,,,,,40.780316416999995,40.84003204200053,611418,001,2023-03-18_09h56.37.955,simple VEP,2022.2.4,None,
,,,,86,0,86,0,,,,,,,,,,,40.84003204200053,40.906210458000714,611418,001,2023-03-18_09h56.37.955,simple VEP,2022.2.4,None,
,,,,87,0,87,0,,,,,,,,,,,40.906210458000714,40.97348270799921,611418,001,2023-03-18_09h56.37.955,simple VEP,2022.2.4,None,
,,,,88,0,88,0,,,,,,,,,,,40.97348270799921,41.03950541700033,611418,001,2023-03-18_09h56.37.955,simple VEP,2022.2.4,None,
,,,,89,0,89,0,,,,,,,,,,,41.03950541700033,41.10340570799963,611418,001,2023-03-18_09h56.37.955,simple VEP,2022.2.4,None,
,,,,90,0,90,0,,,,,,,,,,,41.10340570799963,41.1724067920004,611418,001,2023-03-18_09h56.37.955,simple VEP,2022.2.4,None,
,,,,91,0,91,0,,,,,,,,,,,41.1724067920004,41.23837487499986,611418,001,2023-03-18_09h56.37.955,simple VEP,2022.2.4,None,
,,,,92,0,92,0,,,,,,,,,,,41.23837487499986,41.30477583299944,611418,001,2023-03-18_09h56.37.955,simple VEP,2022.2.4,None,
,,,,93,0,93,0,,,,,,,,,,,41.30477583299944,41.373297833000834,611418,001,2023-03-18_09h56.37.955,simple VEP,2022.2.4,None,
,,,,94,0,94,0,,,,,,,,,,,41.373297833000834,41.438922707999154,611418,001,2023-03-18_09h56.37.955,simple VEP,2022.2.4,None,
,,,,95,0,95,0,,,,,,,,,,,41.438922707999154,41.50653500000044,611418,001,2023-03-18_09h56.37.955,simple VEP,2022.2.4,None,
,,,,96,0,96,0,,,,,,,,,,,41.50653500000044,41.57261083300182,611418,001,2023-03-18_09h56.37.955,simple VEP,2022.2.4,None,
,,,,97,0,97,0,,,,,,,,,,,41.57261083300182,41.639978999999585,611418,001,2023-03-18_09h56.37.955,simple VEP,2022.2.4,None,
,,,,98,0,98,0,,,,,,,,,,,41.639978999999585,41.70697641700099,611418,001,2023-03-18_09h56.37.955,simple VEP,2022.2.4,None,
,,,,99,0,99,0,,,,,,,,,,,41.70697641700099,41.7710925829997,611418,001,2023-03-18_09h56.37.955,simple VEP,2022.2.4,None,
,,,,100,0,100,0,,,,,,,,,,,41.7710925829997,41.830441833000805,611418,001,2023-03-18_09h56.37.955,simple VEP,2022.2.4,None,
,,,,101,0,101,0,,,,,,,,,,,41.830441833000805,41.88791024999955,611418,001,2023-03-18_09h56.37.955,simple VEP,2022.2.4,None,
,,,,102,0,102,0,,,,,,,,,,,41.88791024999955,41.955121916998905,611418,001,2023-03-18_09h56.37.955,simple VEP,2022.2.4,None,
,,,,103,0,103,0,,,,,,,,,,,41.955121916998905,42.020962667000276,611418,001,2023-03-18_09h56.37.955,simple VEP,2022.2.4,None,
,,,,104,0,104,0,,,,,,,,,,,42.020962667000276,42.0802876250018,611418,001,2023-03-18_09h56.37.955,simple VEP,2022.2.4,None,
,,,,105,0,105,0,,,,,,,,,,,42.0802876250018,42.13963254199916,611418,001,2023-03-18_09h56.37.955,simple VEP,2022.2.4,None,
,,,,106,0,106,0,,,,,,,,,,,42.13963254199916,42.20459129200026,611418,001,2023-03-18_09h56.37.955,simple VEP,2022.2.4,None,
,,,,107,0,107,0,,,,,,,,,,,42.20459129200026,42.26628683300078,611418,001,2023-03-18_09h56.37.955,simple VEP,2022.2.4,None,
,,,,108,0,108,0,,,,,,,,,,,42.26628683300078,42.3295982080017,611418,001,2023-03-18_09h56.37.955,simple VEP,2022.2.4,None,
,,,,109,0,109,0,,,,,,,,,,,42.3295982080017,42.3890766250006,611418,001,2023-03-18_09h56.37.955,simple VEP,2022.2.4,None,
,,,,110,0,110,0,,,,,,,,,,,42.3890766250006,42.456282541999826,611418,001,2023-03-18_09h56.37.955,simple VEP,2022.2.4,None,
,,,,111,0,111,0,,,,,,,,,,,42.456282541999826,42.523422375001246,611418,001,2023-03-18_09h56.37.955,simple VEP,2022.2.4,None,
,,,,112,0,112,0,,,,,,,,,,,42.523422375001246,42.59012383300069,611418,001,2023-03-18_09h56.37.955,simple VEP,2022.2.4,None,
,,,,113,0,113,0,,,,,,,,,,,42.59012383300069,42.65766154200173,611418,001,2023-03-18_09h56.37.955,simple VEP,2022.2.4,None,
,,,,114,0,114,0,,,,,,,,,,,42.65766154200173,42.72097320800094,611418,001,2023-03-18_09h56.37.955,simple VEP,2022.2.4,None,
,,,,115,0,115,0,,,,,,,,,,,42.72097320800094,42.78099370799828,611418,001,2023-03-18_09h56.37.955,simple VEP,2022.2.4,None,
,,,,116,0,116,0,,,,,,,,,,,42.78099370799828,42.8403083330013,611418,001,2023-03-18_09h56.37.955,simple VEP,2022.2.4,None,
,,,,117,0,117,0,,,,,,,,,,,42.8403083330013,42.90962066700013,611418,001,2023-03-18_09h56.37.955,simple VEP,2022.2.4,None,
,,,,118,0,118,0,,,,,,,,,,,42.90962066700013,42.97047320799902,611418,001,2023-03-18_09h56.37.955,simple VEP,2022.2.4,None,
,,,,119,0,119,0,,,,,,,,,,,42.97047320799902,43.03139912500046,611418,001,2023-03-18_09h56.37.955,simple VEP,2022.2.4,None,
,,,,120,0,120,0,,,,,,,,,,,43.03139912500046,43.0906127499984,611418,001,2023-03-18_09h56.37.955,simple VEP,2022.2.4,None,
,,,,121,0,121,0,,,,,,,,,,,43.0906127499984,43.15616620799847,611418,001,2023-03-18_09h56.37.955,simple VEP,2022.2.4,None,
,,,,122,0,122,0,,,,,,,,,,,43.15616620799847,43.22242516700135,611418,001,2023-03-18_09h56.37.955,simple VEP,2022.2.4,None,
,,,,123,0,123,0,,,,,,,,,,,43.22242516700135,43.290993792001245,611418,001,2023-03-18_09h56.37.955,simple VEP,2022.2.4,None,
,,,,124,0,124,0,,,,,,,,,,,43.290993792001245,43.35486004199993,611418,001,2023-03-18_09h56.37.955,simple VEP,2022.2.4,None,
,,,,125,0,125,0,,,,,,,,,,,43.35486004199993,43.41643362499963,611418,001,2023-03-18_09h56.37.955,simple VEP,2022.2.4,None,
,,,,126,0,126,0,,,,,,,,,,,43.41643362499963,43.49057058299877,611418,001,2023-03-18_09h56.37.955,simple VEP,2022.2.4,None,
,,,,127,0,127,0,,,,,,,,,,,43.49057058299877,43.555562333000125,611418,001,2023-03-18_09h56.37.955,simple VEP,2022.2.4,None,
,,,,128,0,128,0,,,,,,,,,,,43.555562333000125,43.62035745799949,611418,001,2023-03-18_09h56.37.955,simple VEP,2022.2.4,None,
,,,,129,0,129,0,,,,,,,,,,,43.62035745799949,43.68016666699987,611418,001,2023-03-18_09h56.37.955,simple VEP,2022.2.4,None,
,,,,130,0,130,0,,,,,,,,,,,43.68016666699987,43.738137167001696,611418,001,2023-03-18_09h56.37.955,simple VEP,2022.2.4,None,
,,,,131,0,131,0,,,,,,,,,,,43.738137167001696,43.798448958001245,611418,001,2023-03-18_09h56.37.955,simple VEP,2022.2.4,None,
,,,,132,0,132,0,,,,,,,,,,,43.798448958001245,43.86361541700171,611418,001,2023-03-18_09h56.37.955,simple VEP,2022.2.4,None,
,,,,133,0,133,0,,,,,,,,,,,43.86361541700171,43.92306508299953,611418,001,2023-03-18_09h56.37.955,simple VEP,2022.2.4,None,
,,,,134,0,134,0,,,,,,,,,,,43.92306508299953,43.98823491700023,611418,001,2023-03-18_09h56.37.955,simple VEP,2022.2.4,None,
,,,,135,0,135,0,,,,,,,,,,,43.98823491700023,44.04611541700069,611418,001,2023-03-18_09h56.37.955,simple VEP,2022.2.4,None,
,,,,136,0,136,0,,,,,,,,,,,44.04611541700069,44.10580920799839,611418,001,2023-03-18_09h56.37.955,simple VEP,2022.2.4,None,
,,,,137,0,137,0,,,,,,,,,,,44.10580920799839,44.16355349999867,611418,001,2023-03-18_09h56.37.955,simple VEP,2022.2.4,None,
,,,,138,0,138,0,,,,,,,,,,,44.16355349999867,44.22258916699866,611418,001,2023-03-18_09h56.37.955,simple VEP,2022.2.4,None,
,,,,139,0,139,0,,,,,,,,,,,44.22258916699866,44.288865916998475,611418,001,2023-03-18_09h56.37.955,simple VEP,2022.2.4,None,
,,,,140,0,140,0,,,,,,,,,,,44.288865916998475,44.356806374998996,611418,001,2023-03-18_09h56.37.955,simple VEP,2022.2.4,None,
,,,,141,0,141,0,,,,,,,,,,,44.356806374998996,44.42221120799877,611418,001,2023-03-18_09h56.37.955,simple VEP,2022.2.4,None,
,,,,142,0,142,0,,,,,,,,,,,44.42221120799877,44.48230770800001,611418,001,2023-03-18_09h56.37.955,simple VEP,2022.2.4,None,
,,,,143,0,143,0,,,,,,,,,,,44.48230770800001,44.54738925000129,611418,001,2023-03-18_09h56.37.955,simple VEP,2022.2.4,None,
,,,,144,0,144,0,,,,,,,,,,,44.54738925000129,44.606316332999995,611418,001,2023-03-18_09h56.37.955,simple VEP,2022.2.4,None,
,,,,145,0,145,0,,,,,,,,,,,44.606316332999995,44.673241208001855,611418,001,2023-03-18_09h56.37.955,simple VEP,2022.2.4,None,
,,,,146,0,146,0,,,,,,,,,,,44.673241208001855,44.73407183300151,611418,001,2023-03-18_09h56.37.955,simple VEP,2022.2.4,None,
,,,,147,0,147,0,,,,,,,,,,,44.73407183300151,44.796895791998395,611418,001,2023-03-18_09h56.37.955,simple VEP,2022.2.4,None,
,,,,148,0,148,0,,,,,,,,,,,44.796895791998395,44.857730083000206,611418,001,2023-03-18_09h56.37.955,simple VEP,2022.2.4,None,
,,,,149,0,149,0,,,,,,,,,,,44.857730083000206,44.92288791700048,611418,001,2023-03-18_09h56.37.955,simple VEP,2022.2.4,None,
,,,,150,0,150,0,,,,,,,,,,,44.92288791700048,44.98819474999982,611418,001,2023-03-18_09h56.37.955,simple VEP,2022.2.4,None,
,,,,151,0,151,0,,,,,,,,,,,44.98819474999982,45.045958875001816,611418,001,2023-03-18_09h56.37.955,simple VEP,2022.2.4,None,
,,,,152,0,152,0,,,,,,,,,,,45.045958875001816,45.105612125000334,611418,001,2023-03-18_09h56.37.955,simple VEP,2022.2.4,None,
,,,,153,0,153,0,,,,,,,,,,,45.105612125000334,45.173270041999785,611418,001,2023-03-18_09h56.37.955,simple VEP,2022.2.4,None,
,,,,154,0,154,0,,,,,,,,,,,45.173270041999785,45.23096608299966,611418,001,2023-03-18_09h56.37.955,simple VEP,2022.2.4,None,
,,,,155,0,155,0,,,,,,,,,,,45.23096608299966,45.29678020799838,611418,001,2023-03-18_09h56.37.955,simple VEP,2022.2.4,None,
,,,,156,0,156,0,,,,,,,,,,,45.29678020799838,45.354197874999954,611418,001,2023-03-18_09h56.37.955,simple VEP,2022.2.4,None,
,,,,157,0,157,0,,,,,,,,,,,45.354197874999954,45.421127292000165,611418,001,2023-03-18_09h56.37.955,simple VEP,2022.2.4,None,
,,,,158,0,158,0,,,,,,,,,,,45.421127292000165,45.48894237499917,611418,001,2023-03-18_09h56.37.955,simple VEP,2022.2.4,None,
,,,,159,0,159,0,,,,,,,,,,,45.48894237499917,45.5529610420017,611418,001,2023-03-18_09h56.37.955,simple VEP,2022.2.4,None,
,,,,160,0,160,0,,,,,,,,,,,45.5529610420017,45.61376841699894,611418,001,2023-03-18_09h56.37.955,simple VEP,2022.2.4,None,
,,,,161,0,161,0,,,,,,,,,,,45.61376841699894,45.67398016700099,611418,001,2023-03-18_09h56.37.955,simple VEP,2022.2.4,None,
,,,,162,0,162,0,,,,,,,,,,,45.67398016700099,45.73846683300144,611418,001,2023-03-18_09h56.37.955,simple VEP,2022.2.4,None,
,,,,163,0,163,0,,,,,,,,,,,45.73846683300144,45.81363899999997,611418,001,2023-03-18_09h56.37.955,simple VEP,2022.2.4,None,
,,,,164,0,164,0,,,,,,,,,,,45.81363899999997,45.871972000000824,611418,001,2023-03-18_09h56.37.955,simple VEP,2022.2.4,None,
,,,,165,0,165,0,,,,,,,,,,,45.871972000000824,45.93868929200107,611418,001,2023-03-18_09h56.37.955,simple VEP,2022.2.4,None,
,,,,166,0,166,0,,,,,,,,,,,45.93868929200107,46.00598041700141,611418,001,2023-03-18_09h56.37.955,simple VEP,2022.2.4,None,
,,,,167,0,167,0,,,,,,,,,,,46.00598041700141,46.07310233300086,611418,001,2023-03-18_09h56.37.955,simple VEP,2022.2.4,None,
,,,,168,0,168,0,,,,,,,,,,,46.07310233300086,46.14038845799951,611418,001,2023-03-18_09h56.37.955,simple VEP,2022.2.4,None,
,,,,169,0,169,0,,,,,,,,,,,46.14038845799951,46.20515812500162,611418,001,2023-03-18_09h56.37.955,simple VEP,2022.2.4,None,
,,,,170,0,170,0,,,,,,,,,,,46.20515812500162,46.26470404200154,611418,001,2023-03-18_09h56.37.955,simple VEP,2022.2.4,None,
,,,,171,0,171,0,,,,,,,,,,,46.26470404200154,46.33031066699914,611418,001,2023-03-18_09h56.37.955,simple VEP,2022.2.4,None,
,,,,172,0,172,0,,,,,,,,,,,46.33031066699914,46.39768458300023,611418,001,2023-03-18_09h56.37.955,simple VEP,2022.2.4,None,
,,,,173,0,173,0,,,,,,,,,,,46.39768458300023,46.45555854199847,611418,001,2023-03-18_09h56.37.955,simple VEP,2022.2.4,None,
,,,,174,0,174,0,,,,,,,,,,,46.45555854199847,46.52057420799974,611418,001,2023-03-18_09h56.37.955,simple VEP,2022.2.4,None,
,,,,175,0,175,0,,,,,,,,,,,46.52057420799974,46.57939429199905,611418,001,2023-03-18_09h56.37.955,simple VEP,2022.2.4,None,
,,,,176,0,176,0,,,,,,,,,,,46.57939429199905,46.6381058750012,611418,001,2023-03-18_09h56.37.955,simple VEP,2022.2.4,None,
,,,,177,0,177,0,,,,,,,,,,,46.6381058750012,46.70665637500133,611418,001,2023-03-18_09h56.37.955,simple VEP,2022.2.4,None,
,,,,178,0,178,0,,,,,,,,,,,46.70665637500133,46.77142924999862,611418,001,2023-03-18_09h56.37.955,simple VEP,2022.2.4,None,
,,,,179,0,179,0,,,,,,,,,,,46.77142924999862,46.8393516670003,611418,001,2023-03-18_09h56.37.955,simple VEP,2022.2.4,None,
,,,,180,0,180,0,,,,,,,,,,,46.8393516670003,46.90654941699904,611418,001,2023-03-18_09h56.37.955,simple VEP,2022.2.4,None,
,,,,181,0,181,0,,,,,,,,,,,46.90654941699904,46.9714848750009,611418,001,2023-03-18_09h56.37.955,simple VEP,2022.2.4,None,
,,,,182,0,182,0,,,,,,,,,,,46.9714848750009,47.030396541998925,611418,001,2023-03-18_09h56.37.955,simple VEP,2022.2.4,None,
,,,,183,0,183,0,,,,,,,,,,,47.030396541998925,47.08891095799845,611418,001,2023-03-18_09h56.37.955,simple VEP,2022.2.4,None,
,,,,184,0,184,0,,,,,,,,,,,47.08891095799845,47.1554887079983,611418,001,2023-03-18_09h56.37.955,simple VEP,2022.2.4,None,
,,,,185,0,185,0,,,,,,,,,,,47.1554887079983,47.222803666998516,611418,001,2023-03-18_09h56.37.955,simple VEP,2022.2.4,None,
,,,,186,0,186,0,,,,,,,,,,,47.222803666998516,47.28911791700011,611418,001,2023-03-18_09h56.37.955,simple VEP,2022.2.4,None,
,,,,187,0,187,0,,,,,,,,,,,47.28911791700011,47.36561920800159,611418,001,2023-03-18_09h56.37.955,simple VEP,2022.2.4,None,
,,,,188,0,188,0,,,,,,,,,,,47.36561920800159,47.43013320799946,611418,001,2023-03-18_09h56.37.955,simple VEP,2022.2.4,None,
,,,,189,0,189,0,,,,,,,,,,,47.43013320799946,47.49045245800153,611418,001,2023-03-18_09h56.37.955,simple VEP,2022.2.4,None,
,,,,190,0,190,0,,,,,,,,,,,47.49045245800153,47.55594587499945,611418,001,2023-03-18_09h56.37.955,simple VEP,2022.2.4,None,
,,,,191,0,191,0,,,,,,,,,,,47.55594587499945,47.62292674999844,611418,001,2023-03-18_09h56.37.955,simple VEP,2022.2.4,None,
,,,,192,0,192,0,,,,,,,,,,,47.62292674999844,47.68706937499883,611418,001,2023-03-18_09h56.37.955,simple VEP,2022.2.4,None,
,,,,193,0,193,0,,,,,,,,,,,47.68706937499883,47.746910624999146,611418,001,2023-03-18_09h56.37.955,simple VEP,2022.2.4,None,
,,,,194,0,194,0,,,,,,,,,,,47.746910624999146,47.805818875000114,611418,001,2023-03-18_09h56.37.955,simple VEP,2022.2.4,None,
,,,,195,0,195,0,,,,,,,,,,,47.805818875000114,47.86337800000183,611418,001,2023-03-18_09h56.37.955,simple VEP,2022.2.4,None,
,,,,196,0,196,0,,,,,,,,,,,47.86337800000183,47.92191462499977,611418,001,2023-03-18_09h56.37.955,simple VEP,2022.2.4,None,
,,,,197,0,197,0,,,,,,,,,,,47.92191462499977,47.99689850000141,611418,001,2023-03-18_09h56.37.955,simple VEP,2022.2.4,None,
,,,,198,0,198,0,,,,,,,,,,,47.99689850000141,48.056147374998545,611418,001,2023-03-18_09h56.37.955,simple VEP,2022.2.4,None,
,,,,199,0,199,0,,,,,,,,,,,48.056147374998545,48.121836708000046,611418,001,2023-03-18_09h56.37.955,simple VEP,2022.2.4,None,
,,,,200,0,200,0,,,,,,,,,,,48.121836708000046,48.18822354200165,611418,001,2023-03-18_09h56.37.955,simple VEP,2022.2.4,None,
,,,,201,0,201,0,,,,,,,,,,,48.18822354200165,48.246704500001215,611418,001,2023-03-18_09h56.37.955,simple VEP,2022.2.4,None,
,,,,202,0,202,0,,,,,,,,,,,48.246704500001215,48.304421083001216,611418,001,2023-03-18_09h56.37.955,simple VEP,2022.2.4,None,
,,,,203,0,203,0,,,,,,,,,,,48.304421083001216,48.36351479199948,611418,001,2023-03-18_09h56.37.955,simple VEP,2022.2.4,None,
,,,,204,0,204,0,,,,,,,,,,,48.36351479199948,48.422548957998515,611418,001,2023-03-18_09h56.37.955,simple VEP,2022.2.4,None,
,,,,205,0,205,0,,,,,,,,,,,48.422548957998515,48.48793229199873,611418,001,2023-03-18_09h56.37.955,simple VEP,2022.2.4,None,
,,,,206,0,206,0,,,,,,,,,,,48.48793229199873,48.55620891700164,611418,001,2023-03-18_09h56.37.955,simple VEP,2022.2.4,None,
,,,,207,0,207,0,,,,,,,,,,,48.55620891700164,48.61692329200014,611418,001,2023-03-18_09h56.37.955,simple VEP,2022.2.4,None,
,,,,208,0,208,0,,,,,,,,,,,48.61692329200014,48.68028704199969,611418,001,2023-03-18_09h56.37.955,simple VEP,2022.2.4,None,
,,,,209,0,209,0,,,,,,,,,,,48.68028704199969,48.73945250000179,611418,001,2023-03-18_09h56.37.955,simple VEP,2022.2.4,None,
,,,,210,0,210,0,,,,,,,,,,,48.73945250000179,48.80684104199827,611418,001,2023-03-18_09h56.37.955,simple VEP,2022.2.4,None,
,,,,211,0,211,0,,,,,,,,,,,48.80684104199827,48.87362445799954,611418,001,2023-03-18_09h56.37.955,simple VEP,2022.2.4,None,
,,,,212,0,212,0,,,,,,,,,,,48.87362445799954,48.9395293330017,611418,001,2023-03-18_09h56.37.955,simple VEP,2022.2.4,None,
,,,,213,0,213,0,,,,,,,,,,,48.9395293330017,49.00796554200133,611418,001,2023-03-18_09h56.37.955,simple VEP,2022.2.4,None,
,,,,214,0,214,0,,,,,,,,,,,49.00796554200133,49.07214195800043,611418,001,2023-03-18_09h56.37.955,simple VEP,2022.2.4,None,
,,,,215,0,215,0,,,,,,,,,,,49.07214195800043,49.13947037500111,611418,001,2023-03-18_09h56.37.955,simple VEP,2022.2.4,None,
,,,,216,0,216,0,,,,,,,,,,,49.13947037500111,49.20623537500069,611418,001,2023-03-18_09h56.37.955,simple VEP,2022.2.4,None,
,,,,217,0,217,0,,,,,,,,,,,49.20623537500069,49.27306870800021,611418,001,2023-03-18_09h56.37.955,simple VEP,2022.2.4,None,
,,,,218,0,218,0,,,,,,,,,,,49.27306870800021,49.33703904199865,611418,001,2023-03-18_09h56.37.955,simple VEP,2022.2.4,None,
,,,,219,0,219,0,,,,,,,,,,,49.33703904199865,49.39794337499916,611418,001,2023-03-18_09h56.37.955,simple VEP,2022.2.4,None,
,,,,220,0,220,0,,,,,,,,,,,49.39794337499916,49.45632066699909,611418,001,2023-03-18_09h56.37.955,simple VEP,2022.2.4,None,
,,,,221,0,221,0,,,,,,,,,,,49.45632066699909,49.52741783300007,611418,001,2023-03-18_09h56.37.955,simple VEP,2022.2.4,None,
,,,,222,0,222,0,,,,,,,,,,,49.52741783300007,49.58991083300134,611418,001,2023-03-18_09h56.37.955,simple VEP,2022.2.4,None,
,,,,223,0,223,0,,,,,,,,,,,49.58991083300134,49.65716558300119,611418,001,2023-03-18_09h56.37.955,simple VEP,2022.2.4,None,
,,,,224,0,224,0,,,,,,,,,,,49.65716558300119,49.720954874999734,611418,001,2023-03-18_09h56.37.955,simple VEP,2022.2.4,None,
,,,,225,0,225,0,,,,,,,,,,,49.720954874999734,49.77945641699989,611418,001,2023-03-18_09h56.37.955,simple VEP,2022.2.4,None,
,,,,226,0,226,0,,,,,,,,,,,49.77945641699989,49.83999812500042,611418,001,2023-03-18_09h56.37.955,simple VEP,2022.2.4,None,
,,,,227,0,227,0,,,,,,,,,,,49.83999812500042,49.90587612500167,611418,001,2023-03-18_09h56.37.955,simple VEP,2022.2.4,None,
,,,,228,0,228,0,,,,,,,,,,,49.90587612500167,49.97186262499963,611418,001,2023-03-18_09h56.37.955,simple VEP,2022.2.4,None,
,,,,229,0,229,0,,,,,,,,,,,49.97186262499963,50.039503167001385,611418,001,2023-03-18_09h56.37.955,simple VEP,2022.2.4,None,
,,,,230,0,230,0,,,,,,,,,,,50.039503167001385,50.10325237500001,611418,001,2023-03-18_09h56.37.955,simple VEP,2022.2.4,None,
,,,,231,0,231,0,,,,,,,,,,,50.10325237500001,50.164068458001566,611418,001,2023-03-18_09h56.37.955,simple VEP,2022.2.4,None,
,,,,232,0,232,0,,,,,,,,,,,50.164068458001566,50.22196595800051,611418,001,2023-03-18_09h56.37.955,simple VEP,2022.2.4,None,
,,,,233,0,233,0,,,,,,,,,,,50.22196595800051,50.288024207999115,611418,001,2023-03-18_09h56.37.955,simple VEP,2022.2.4,None,
,,,,234,0,234,0,,,,,,,,,,,50.288024207999115,50.35494133300017,611418,001,2023-03-18_09h56.37.955,simple VEP,2022.2.4,None,
,,,,235,0,235,0,,,,,,,,,,,50.35494133300017,50.422033375001774,611418,001,2023-03-18_09h56.37.955,simple VEP,2022.2.4,None,
,,,,236,0,236,0,,,,,,,,,,,50.422033375001774,50.487836917000095,611418,001,2023-03-18_09h56.37.955,simple VEP,2022.2.4,None,
,,,,237,0,237,0,,,,,,,,,,,50.487836917000095,50.5548415000012,611418,001,2023-03-18_09h56.37.955,simple VEP,2022.2.4,None,
,,,,238,0,238,0,,,,,,,,,,,50.5548415000012,50.61351025000113,611418,001,2023-03-18_09h56.37.955,simple VEP,2022.2.4,None,
,,,,239,0,239,0,,,,,,,,,,,50.61351025000113,50.67278370799977,611418,001,2023-03-18_09h56.37.955,simple VEP,2022.2.4,None,
,,,,240,0,240,0,,,,,,,,,,,50.67278370799977,50.73925129200143,611418,001,2023-03-18_09h56.37.955,simple VEP,2022.2.4,None,
,,,,241,0,241,0,,,,,,,,,,,50.73925129200143,50.80703979200189,611418,001,2023-03-18_09h56.37.955,simple VEP,2022.2.4,None,
,,,,242,0,242,0,,,,,,,,,,,50.80703979200189,50.87211699999898,611418,001,2023-03-18_09h56.37.955,simple VEP,2022.2.4,None,
,,,,243,0,243,0,,,,,,,,,,,50.87211699999898,50.938422916999116,611418,001,2023-03-18_09h56.37.955,simple VEP,2022.2.4,None,
,,,,244,0,244,0,,,,,,,,,,,50.938422916999116,50.99707337500149,611418,001,2023-03-18_09h56.37.955,simple VEP,2022.2.4,None,
,,,,245,0,245,0,,,,,,,,,,,50.99707337500149,51.054169250000996,611418,001,2023-03-18_09h56.37.955,simple VEP,2022.2.4,None,
,,,,246,0,246,0,,,,,,,,,,,51.054169250000996,51.12175087500145,611418,001,2023-03-18_09h56.37.955,simple VEP,2022.2.4,None,
,,,,247,0,247,0,,,,,,,,,,,51.12175087500145,51.18786037500104,611418,001,2023-03-18_09h56.37.955,simple VEP,2022.2.4,None,
,,,,248,0,248,0,,,,,,,,,,,51.18786037500104,51.24671500000113,611418,001,2023-03-18_09h56.37.955,simple VEP,2022.2.4,None,
,,,,249,0,249,0,,,,,,,,,,,51.24671500000113,51.305773500000214,611418,001,2023-03-18_09h56.37.955,simple VEP,2022.2.4,None,
,,,,250,0,250,0,,,,,,,,,,,51.305773500000214,51.37124683300135,611418,001,2023-03-18_09h56.37.955,simple VEP,2022.2.4,None,
,,,,251,0,251,0,,,,,,,,,,,51.37124683300135,51.43762916700143,611418,001,2023-03-18_09h56.37.955,simple VEP,2022.2.4,None,
,,,,252,0,252,0,,,,,,,,,,,51.43762916700143,51.49715012500019,611418,001,2023-03-18_09h56.37.955,simple VEP,2022.2.4,None,
,,,,253,0,253,0,,,,,,,,,,,51.49715012500019,51.5539369170001,611418,001,2023-03-18_09h56.37.955,simple VEP,2022.2.4,None,
,,,,254,0,254,0,,,,,,,,,,,51.5539369170001,51.62155970800086,611418,001,2023-03-18_09h56.37.955,simple VEP,2022.2.4,None,
,,,,255,0,255,0,,,,,,,,,,,51.62155970800086,51.679991458000586,611418,001,2023-03-18_09h56.37.955,simple VEP,2022.2.4,None,
,,,,256,0,256,0,,,,,,,,,,,51.679991458000586,51.73955708300127,611418,001,2023-03-18_09h56.37.955,simple VEP,2022.2.4,None,
,,,,257,0,257,0,,,,,,,,,,,51.73955708300127,51.80485200000112,611418,001,2023-03-18_09h56.37.955,simple VEP,2022.2.4,None,
,,,,258,0,258,0,,,,,,,,,,,51.80485200000112,51.86334816700037,611418,001,2023-03-18_09h56.37.955,simple VEP,2022.2.4,None,
,,,,259,0,259,0,,,,,,,,,,,51.86334816700037,51.923189417000685,611418,001,2023-03-18_09h56.37.955,simple VEP,2022.2.4,None,
,,,,260,0,260,0,,,,,,,,,,,51.923189417000685,51.987312417000794,611418,001,2023-03-18_09h56.37.955,simple VEP,2022.2.4,None,
,,,,261,0,261,0,,,,,,,,,,,51.987312417000794,52.046754292001424,611418,001,2023-03-18_09h56.37.955,simple VEP,2022.2.4,None,
,,,,262,0,262,0,,,,,,,,,,,52.046754292001424,52.10632712499864,611418,001,2023-03-18_09h56.37.955,simple VEP,2022.2.4,None,
,,,,263,0,263,0,,,,,,,,,,,52.10632712499864,52.17245337499844,611418,001,2023-03-18_09h56.37.955,simple VEP,2022.2.4,None,
,,,,264,0,264,0,,,,,,,,,,,52.17245337499844,52.23133058299936,611418,001,2023-03-18_09h56.37.955,simple VEP,2022.2.4,None,
,,,,265,0,265,0,,,,,,,,,,,52.23133058299936,52.28936033300124,611418,001,2023-03-18_09h56.37.955,simple VEP,2022.2.4,None,
,,,,266,0,266,0,,,,,,,,,,,52.28936033300124,52.35878275000141,611418,001,2023-03-18_09h56.37.955,simple VEP,2022.2.4,None,
,,,,267,0,267,0,,,,,,,,,,,52.35878275000141,52.4211100829998,611418,001,2023-03-18_09h56.37.955,simple VEP,2022.2.4,None,
,,,,268,0,268,0,,,,,,,,,,,52.4211100829998,52.48031587500009,611418,001,2023-03-18_09h56.37.955,simple VEP,2022.2.4,None,
,,,,269,0,269,0,,,,,,,,,,,52.48031587500009,52.53969416700056,611418,001,2023-03-18_09h56.37.955,simple VEP,2022.2.4,None,
,,,,270,0,270,0,,,,,,,,,,,52.53969416700056,52.60566349999863,611418,001,2023-03-18_09h56.37.955,simple VEP,2022.2.4,None,
,,,,271,0,271,0,,,,,,,,,,,52.60566349999863,52.67383570799939,611418,001,2023-03-18_09h56.37.955,simple VEP,2022.2.4,None,
,,,,272,0,272,0,,,,,,,,,,,52.67383570799939,52.74234941699979,611418,001,2023-03-18_09h56.37.955,simple VEP,2022.2.4,None,
,,,,273,0,273,0,,,,,,,,,,,52.74234941699979,52.806086000000505,611418,001,2023-03-18_09h56.37.955,simple VEP,2022.2.4,None,
,,,,274,0,274,0,,,,,,,,,,,52.806086000000505,52.87274870799956,611418,001,2023-03-18_09h56.37.955,simple VEP,2022.2.4,None,
,,,,275,0,275,0,,,,,,,,,,,52.87274870799956,52.940174167000805,611418,001,2023-03-18_09h56.37.955,simple VEP,2022.2.4,None,
,,,,276,0,276,0,,,,,,,,,,,52.940174167000805,52.999936332998914,611418,001,2023-03-18_09h56.37.955,simple VEP,2022.2.4,None,
,,,,277,0,277,0,,,,,,,,,,,52.999936332998914,53.063753541999176,611418,001,2023-03-18_09h56.37.955,simple VEP,2022.2.4,None,
,,,,278,0,278,0,,,,,,,,,,,53.063753541999176,53.12205858300149,611418,001,2023-03-18_09h56.37.955,simple VEP,2022.2.4,None,
,,,,279,0,279,0,,,,,,,,,,,53.12205858300149,53.19202904199847,611418,001,2023-03-18_09h56.37.955,simple VEP,2022.2.4,None,
,,,,280,0,280,0,,,,,,,,,,,53.19202904199847,53.25381700000071,611418,001,2023-03-18_09h56.37.955,simple VEP,2022.2.4,None,
,,,,281,0,281,0,,,,,,,,,,,53.25381700000071,53.31370949999837,611418,001,2023-03-18_09h56.37.955,simple VEP,2022.2.4,None,
,,,,282,0,282,0,,,,,,,,,,,53.31370949999837,53.370489166998595,611418,001,2023-03-18_09h56.37.955,simple VEP,2022.2.4,None,
,,,,283,0,283,0,,,,,,,,,,,53.370489166998595,53.432639624999865,611418,001,2023-03-18_09h56.37.955,simple VEP,2022.2.4,None,
,,,,284,0,284,0,,,,,,,,,,,53.432639624999865,53.496880750000855,611418,001,2023-03-18_09h56.37.955,simple VEP,2022.2.4,None,
,,,,285,0,285,0,,,,,,,,,,,53.496880750000855,53.55486833300165,611418,001,2023-03-18_09h56.37.955,simple VEP,2022.2.4,None,
,,,,286,0,286,0,,,,,,,,,,,53.55486833300165,53.613281292000465,611418,001,2023-03-18_09h56.37.955,simple VEP,2022.2.4,None,
,,,,287,0,287,0,,,,,,,,,,,53.613281292000465,53.67252620799991,611418,001,2023-03-18_09h56.37.955,simple VEP,2022.2.4,None,
,,,,288,0,288,0,,,,,,,,,,,53.67252620799991,53.73055283299982,611418,001,2023-03-18_09h56.37.955,simple VEP,2022.2.4,None,
,,,,289,0,289,0,,,,,,,,,,,53.73055283299982,53.78911125000013,611418,001,2023-03-18_09h56.37.955,simple VEP,2022.2.4,None,
,,,,290,0,290,0,,,,,,,,,,,53.78911125000013,53.85678641699997,611418,001,2023-03-18_09h56.37.955,simple VEP,2022.2.4,None,
,,,,291,0,291,0,,,,,,,,,,,53.85678641699997,53.93002762499964,611418,001,2023-03-18_09h56.37.955,simple VEP,2022.2.4,None,
,,,,292,0,292,0,,,,,,,,,,,53.93002762499964,53.988625082998624,611418,001,2023-03-18_09h56.37.955,simple VEP,2022.2.4,None,
,,,,293,0,293,0,,,,,,,,,,,53.988625082998624,54.053576541999064,611418,001,2023-03-18_09h56.37.955,simple VEP,2022.2.4,None,
,,,,294,0,294,0,,,,,,,,,,,54.053576541999064,54.11361154200131,611418,001,2023-03-18_09h56.37.955,simple VEP,2022.2.4,None,
,,,,295,0,295,0,,,,,,,,,,,54.11361154200131,54.17254987499837,611418,001,2023-03-18_09h56.37.955,simple VEP,2022.2.4,None,
,,,,296,0,296,0,,,,,,,,,,,54.17254987499837,54.23774087499987,611418,001,2023-03-18_09h56.37.955,simple VEP,2022.2.4,None,
,,,,297,0,297,0,,,,,,,,,,,54.23774087499987,54.29710066700136,611418,001,2023-03-18_09h56.37.955,simple VEP,2022.2.4,None,
,,,,298,0,298,0,,,,,,,,,,,54.29710066700136,54.35658433299977,611418,001,2023-03-18_09h56.37.955,simple VEP,2022.2.4,None,
,,,,299,0,299,0,,,,,,,,,,,54.35658433299977,54.419755333001376,611418,001,2023-03-18_09h56.37.955,simple VEP,2022.2.4,None,
