trials.thisRepN,trials.thisTrialN,trials.thisN,trials.thisIndex,image.started,fixation.started,image.stopped,fixation.stopped,image_2.started,fixation_2.started,image_2.stopped,fixation_2.stopped,participant,session,date,expName,psychopyVersion,frameRate,
0,0,0,0,13.016972541998257,13.016972541998257,13.20044712500021,13.20044712500021,13.20044712500021,13.20044712500021,13.35858804199961,13.35858804199961,637905,001,2023-03-18_09h09.39.701,simple VEP,2022.2.4,None,
1,0,1,0,13.35858804199961,13.35858804199961,13.525953500000469,13.525953500000469,13.525953500000469,13.525953500000469,13.689553042000625,13.689553042000625,637905,001,2023-03-18_09h09.39.701,simple VEP,2022.2.4,None,
2,0,2,0,13.689553042000625,13.689553042000625,13.852632458001608,13.852632458001608,13.852632458001608,13.852632458001608,14.016485500000272,14.016485500000272,637905,001,2023-03-18_09h09.39.701,simple VEP,2022.2.4,None,
3,0,3,0,14.016485500000272,14.016485500000272,14.194237499999872,14.194237499999872,14.194237499999872,14.194237499999872,14.359428250001656,14.359428250001656,637905,001,2023-03-18_09h09.39.701,simple VEP,2022.2.4,None,
4,0,4,0,14.359428250001656,14.359428250001656,14.518945416999486,14.518945416999486,14.518945416999486,14.518945416999486,14.678300083000067,14.678300083000067,637905,001,2023-03-18_09h09.39.701,simple VEP,2022.2.4,None,
5,0,5,0,14.678300083000067,14.678300083000067,14.844866750001529,14.844866750001529,14.844866750001529,14.844866750001529,15.007078082999215,15.007078082999215,637905,001,2023-03-18_09h09.39.701,simple VEP,2022.2.4,None,
6,0,6,0,15.007078082999215,15.007078082999215,15.178117708001082,15.178117708001082,15.178117708001082,15.178117708001082,15.343622749998758,15.343622749998758,637905,001,2023-03-18_09h09.39.701,simple VEP,2022.2.4,None,
7,0,7,0,15.343622749998758,15.343622749998758,15.506490583000414,15.506490583000414,15.506490583000414,15.506490583000414,15.677422207998461,15.677422207998461,637905,001,2023-03-18_09h09.39.701,simple VEP,2022.2.4,None,
8,0,8,0,15.677422207998461,15.677422207998461,15.842948207999143,15.842948207999143,15.842948207999143,15.842948207999143,16.007622332999745,16.007622332999745,637905,001,2023-03-18_09h09.39.701,simple VEP,2022.2.4,None,
9,0,9,0,16.007622332999745,16.007622332999745,16.17655166699842,16.17655166699842,16.17655166699842,16.17655166699842,16.337632250000752,16.337632250000752,637905,001,2023-03-18_09h09.39.701,simple VEP,2022.2.4,None,
10,0,10,0,16.337632250000752,16.337632250000752,16.504265499999747,16.504265499999747,16.504265499999747,16.504265499999747,16.66647083299904,16.66647083299904,637905,001,2023-03-18_09h09.39.701,simple VEP,2022.2.4,None,
11,0,11,0,16.66647083299904,16.66647083299904,16.842570291999436,16.842570291999436,16.842570291999436,16.842570291999436,17.00962179199996,17.00962179199996,637905,001,2023-03-18_09h09.39.701,simple VEP,2022.2.4,None,
12,0,12,0,17.00962179199996,17.00962179199996,17.17241191699941,17.17241191699941,17.17241191699941,17.17241191699941,17.341315500001656,17.341315500001656,637905,001,2023-03-18_09h09.39.701,simple VEP,2022.2.4,None,
13,0,13,0,17.341315500001656,17.341315500001656,17.502501375001884,17.502501375001884,17.502501375001884,17.502501375001884,17.67215933300031,17.67215933300031,637905,001,2023-03-18_09h09.39.701,simple VEP,2022.2.4,None,
14,0,14,0,17.67215933300031,17.67215933300031,17.8381247920006,17.8381247920006,17.8381247920006,17.8381247920006,18.00666020800054,18.00666020800054,637905,001,2023-03-18_09h09.39.701,simple VEP,2022.2.4,None,
15,0,15,0,18.00666020800054,18.00666020800054,18.18732241700127,18.18732241700127,18.18732241700127,18.18732241700127,18.35609900000054,18.35609900000054,637905,001,2023-03-18_09h09.39.701,simple VEP,2022.2.4,None,
16,0,16,0,18.35609900000054,18.35609900000054,18.520317624999734,18.520317624999734,18.520317624999734,18.520317624999734,18.693317917000968,18.693317917000968,637905,001,2023-03-18_09h09.39.701,simple VEP,2022.2.4,None,
17,0,17,0,18.693317917000968,18.693317917000968,18.85651370800042,18.85651370800042,18.85651370800042,18.85651370800042,19.029476250001608,19.029476250001608,637905,001,2023-03-18_09h09.39.701,simple VEP,2022.2.4,None,
18,0,18,0,19.029476250001608,19.029476250001608,19.191559916998813,19.191559916998813,19.191559916998813,19.191559916998813,19.36017316699872,19.36017316699872,637905,001,2023-03-18_09h09.39.701,simple VEP,2022.2.4,None,
19,0,19,0,19.36017316699872,19.36017316699872,19.528219542000443,19.528219542000443,19.528219542000443,19.528219542000443,19.695880374998524,19.695880374998524,637905,001,2023-03-18_09h09.39.701,simple VEP,2022.2.4,None,
20,0,20,0,19.695880374998524,19.695880374998524,19.86529545799931,19.86529545799931,19.86529545799931,19.86529545799931,20.028507750001154,20.028507750001154,637905,001,2023-03-18_09h09.39.701,simple VEP,2022.2.4,None,
21,0,21,0,20.028507750001154,20.028507750001154,20.19819195799937,20.19819195799937,20.19819195799937,20.19819195799937,20.364060291998612,20.364060291998612,637905,001,2023-03-18_09h09.39.701,simple VEP,2022.2.4,None,
22,0,22,0,20.364060291998612,20.364060291998612,20.534995417001483,20.534995417001483,20.534995417001483,20.534995417001483,20.70485520800139,20.70485520800139,637905,001,2023-03-18_09h09.39.701,simple VEP,2022.2.4,None,
23,0,23,0,20.70485520800139,20.70485520800139,20.87319750000097,20.87319750000097,20.87319750000097,20.87319750000097,21.044020332999935,21.044020332999935,637905,001,2023-03-18_09h09.39.701,simple VEP,2022.2.4,None,
24,0,24,0,21.044020332999935,21.044020332999935,21.214131625001755,21.214131625001755,21.214131625001755,21.214131625001755,21.377533792001486,21.377533792001486,637905,001,2023-03-18_09h09.39.701,simple VEP,2022.2.4,None,
25,0,25,0,21.377533792001486,21.377533792001486,21.535853500001394,21.535853500001394,21.535853500001394,21.535853500001394,21.704760042001,21.704760042001,637905,001,2023-03-18_09h09.39.701,simple VEP,2022.2.4,None,
26,0,26,0,21.704760042001,21.704760042001,21.869974166998873,21.869974166998873,21.869974166998873,21.869974166998873,22.03915112500181,22.03915112500181,637905,001,2023-03-18_09h09.39.701,simple VEP,2022.2.4,None,
27,0,27,0,22.03915112500181,22.03915112500181,22.210013167001307,22.210013167001307,22.210013167001307,22.210013167001307,22.370227125000383,22.370227125000383,637905,001,2023-03-18_09h09.39.701,simple VEP,2022.2.4,None,
28,0,28,0,22.370227125000383,22.370227125000383,22.537644916999852,22.537644916999852,22.537644916999852,22.537644916999852,22.70924520799963,22.70924520799963,637905,001,2023-03-18_09h09.39.701,simple VEP,2022.2.4,None,
29,0,29,0,22.70924520799963,22.70924520799963,22.875359292000212,22.875359292000212,22.875359292000212,22.875359292000212,23.03766570800144,23.03766570800144,637905,001,2023-03-18_09h09.39.701,simple VEP,2022.2.4,None,
30,0,30,0,23.03766570800144,23.03766570800144,23.204785833000642,23.204785833000642,23.204785833000642,23.204785833000642,23.37487891699857,23.37487891699857,637905,001,2023-03-18_09h09.39.701,simple VEP,2022.2.4,None,
31,0,31,0,23.37487891699857,23.37487891699857,23.5382092079999,23.5382092079999,23.5382092079999,23.5382092079999,23.70255383300173,23.70255383300173,637905,001,2023-03-18_09h09.39.701,simple VEP,2022.2.4,None,
32,0,32,0,23.70255383300173,23.70255383300173,23.86902170800022,23.86902170800022,23.86902170800022,23.86902170800022,24.034074833001796,24.034074833001796,637905,001,2023-03-18_09h09.39.701,simple VEP,2022.2.4,None,
33,0,33,0,24.034074833001796,24.034074833001796,24.196327833000396,24.196327833000396,24.196327833000396,24.196327833000396,24.36544495799899,24.36544495799899,637905,001,2023-03-18_09h09.39.701,simple VEP,2022.2.4,None,
34,0,34,0,24.36544495799899,24.36544495799899,24.527219625000726,24.527219625000726,24.527219625000726,24.527219625000726,24.694412249999004,24.694412249999004,637905,001,2023-03-18_09h09.39.701,simple VEP,2022.2.4,None,
35,0,35,0,24.694412249999004,24.694412249999004,24.859537125001225,24.859537125001225,24.859537125001225,24.859537125001225,25.02292395800032,25.02292395800032,637905,001,2023-03-18_09h09.39.701,simple VEP,2022.2.4,None,
36,0,36,0,25.02292395800032,25.02292395800032,25.184012582998548,25.184012582998548,25.184012582998548,25.184012582998548,25.347965749999275,25.347965749999275,637905,001,2023-03-18_09h09.39.701,simple VEP,2022.2.4,None,
37,0,37,0,25.347965749999275,25.347965749999275,25.50646854200022,25.50646854200022,25.50646854200022,25.50646854200022,25.6765038750018,25.6765038750018,637905,001,2023-03-18_09h09.39.701,simple VEP,2022.2.4,None,
38,0,38,0,25.6765038750018,25.6765038750018,25.846346166999865,25.846346166999865,25.846346166999865,25.846346166999865,26.0095942500011,26.0095942500011,637905,001,2023-03-18_09h09.39.701,simple VEP,2022.2.4,None,
39,0,39,0,26.0095942500011,26.0095942500011,26.170209291998617,26.170209291998617,26.170209291998617,26.170209291998617,26.334777416999714,26.334777416999714,637905,001,2023-03-18_09h09.39.701,simple VEP,2022.2.4,None,
40,0,40,0,26.334777416999714,26.334777416999714,26.503549332999683,26.503549332999683,26.503549332999683,26.503549332999683,26.675962332999916,26.675962332999916,637905,001,2023-03-18_09h09.39.701,simple VEP,2022.2.4,None,
41,0,41,0,26.675962332999916,26.675962332999916,26.838152917000116,26.838152917000116,26.838152917000116,26.838152917000116,27.008537082998373,27.008537082998373,637905,001,2023-03-18_09h09.39.701,simple VEP,2022.2.4,None,
42,0,42,0,27.008537082998373,27.008537082998373,27.17714129199885,27.17714129199885,27.17714129199885,27.17714129199885,27.340323500000522,27.340323500000522,637905,001,2023-03-18_09h09.39.701,simple VEP,2022.2.4,None,
43,0,43,0,27.340323500000522,27.340323500000522,27.502803999999742,27.502803999999742,27.502803999999742,27.502803999999742,27.67732666699885,27.67732666699885,637905,001,2023-03-18_09h09.39.701,simple VEP,2022.2.4,None,
44,0,44,0,27.67732666699885,27.67732666699885,27.838758958001563,27.838758958001563,27.838758958001563,27.838758958001563,28.007951457999297,28.007951457999297,637905,001,2023-03-18_09h09.39.701,simple VEP,2022.2.4,None,
45,0,45,0,28.007951457999297,28.007951457999297,28.17918095799905,28.17918095799905,28.17918095799905,28.17918095799905,28.345517082998413,28.345517082998413,637905,001,2023-03-18_09h09.39.701,simple VEP,2022.2.4,None,
46,0,46,0,28.345517082998413,28.345517082998413,28.50632491700162,28.50632491700162,28.50632491700162,28.50632491700162,28.671709124999325,28.671709124999325,637905,001,2023-03-18_09h09.39.701,simple VEP,2022.2.4,None,
47,0,47,0,28.671709124999325,28.671709124999325,28.834518291998393,28.834518291998393,28.834518291998393,28.834518291998393,28.995316707998427,28.995316707998427,637905,001,2023-03-18_09h09.39.701,simple VEP,2022.2.4,None,
48,0,48,0,28.995316707998427,28.995316707998427,29.154985791999934,29.154985791999934,29.154985791999934,29.154985791999934,29.319785916999535,29.319785916999535,637905,001,2023-03-18_09h09.39.701,simple VEP,2022.2.4,None,
49,0,49,0,29.319785916999535,29.319785916999535,29.478609041998425,29.478609041998425,29.478609041998425,29.478609041998425,29.644321457999467,29.644321457999467,637905,001,2023-03-18_09h09.39.701,simple VEP,2022.2.4,None,
50,0,50,0,29.644321457999467,29.644321457999467,29.803408291998494,29.803408291998494,29.803408291998494,29.803408291998494,29.96544370799893,29.96544370799893,637905,001,2023-03-18_09h09.39.701,simple VEP,2022.2.4,None,
51,0,51,0,29.96544370799893,29.96544370799893,30.131708542001434,30.131708542001434,30.131708542001434,30.131708542001434,30.29274516700025,30.29274516700025,637905,001,2023-03-18_09h09.39.701,simple VEP,2022.2.4,None,
52,0,52,0,30.29274516700025,30.29274516700025,30.461224499998934,30.461224499998934,30.461224499998934,30.461224499998934,30.62663245799922,30.62663245799922,637905,001,2023-03-18_09h09.39.701,simple VEP,2022.2.4,None,
53,0,53,0,30.62663245799922,30.62663245799922,30.804142666998814,30.804142666998814,30.804142666998814,30.804142666998814,30.97082770799898,30.97082770799898,637905,001,2023-03-18_09h09.39.701,simple VEP,2022.2.4,None,
54,0,54,0,30.97082770799898,30.97082770799898,31.1381020000008,31.1381020000008,31.1381020000008,31.1381020000008,31.302501666999888,31.302501666999888,637905,001,2023-03-18_09h09.39.701,simple VEP,2022.2.4,None,
55,0,55,0,31.302501666999888,31.302501666999888,31.46683587499865,31.46683587499865,31.46683587499865,31.46683587499865,31.62848550000126,31.62848550000126,637905,001,2023-03-18_09h09.39.701,simple VEP,2022.2.4,None,
56,0,56,0,31.62848550000126,31.62848550000126,31.797659416999522,31.797659416999522,31.797659416999522,31.797659416999522,31.96598591699876,31.96598591699876,637905,001,2023-03-18_09h09.39.701,simple VEP,2022.2.4,None,
57,0,57,0,31.96598591699876,31.96598591699876,32.13529908300188,32.13529908300188,32.13529908300188,32.13529908300188,32.29586708300121,32.29586708300121,637905,001,2023-03-18_09h09.39.701,simple VEP,2022.2.4,None,
58,0,58,0,32.29586708300121,32.29586708300121,32.468489625000075,32.468489625000075,32.468489625000075,32.468489625000075,32.642627791999985,32.642627791999985,637905,001,2023-03-18_09h09.39.701,simple VEP,2022.2.4,None,
59,0,59,0,32.642627791999985,32.642627791999985,32.80978587500067,32.80978587500067,32.80978587500067,32.80978587500067,32.97290533300111,32.97290533300111,637905,001,2023-03-18_09h09.39.701,simple VEP,2022.2.4,None,
60,0,60,0,32.97290533300111,32.97290533300111,33.14285283299978,33.14285283299978,33.14285283299978,33.14285283299978,33.307957166998676,33.307957166998676,637905,001,2023-03-18_09h09.39.701,simple VEP,2022.2.4,None,
61,0,61,0,33.307957166998676,33.307957166998676,33.47629474999849,33.47629474999849,33.47629474999849,33.47629474999849,33.63914595800088,33.63914595800088,637905,001,2023-03-18_09h09.39.701,simple VEP,2022.2.4,None,
62,0,62,0,33.63914595800088,33.63914595800088,33.80461891700179,33.80461891700179,33.80461891700179,33.80461891700179,33.976483750000625,33.976483750000625,637905,001,2023-03-18_09h09.39.701,simple VEP,2022.2.4,None,
63,0,63,0,33.976483750000625,33.976483750000625,34.137210083001264,34.137210083001264,34.137210083001264,34.137210083001264,34.29922337500102,34.29922337500102,637905,001,2023-03-18_09h09.39.701,simple VEP,2022.2.4,None,
64,0,64,0,34.29922337500102,34.29922337500102,34.461901250000665,34.461901250000665,34.461901250000665,34.461901250000665,34.64523541699964,34.64523541699964,637905,001,2023-03-18_09h09.39.701,simple VEP,2022.2.4,None,
65,0,65,0,34.64523541699964,34.64523541699964,34.81973770799959,34.81973770799959,34.81973770799959,34.81973770799959,34.98971900000106,34.98971900000106,637905,001,2023-03-18_09h09.39.701,simple VEP,2022.2.4,None,
66,0,66,0,34.98971900000106,34.98971900000106,35.15172299999904,35.15172299999904,35.15172299999904,35.15172299999904,35.313794082998356,35.313794082998356,637905,001,2023-03-18_09h09.39.701,simple VEP,2022.2.4,None,
67,0,67,0,35.313794082998356,35.313794082998356,35.47646095800155,35.47646095800155,35.47646095800155,35.47646095800155,35.63760508300038,35.63760508300038,637905,001,2023-03-18_09h09.39.701,simple VEP,2022.2.4,None,
68,0,68,0,35.63760508300038,35.63760508300038,35.79829145799886,35.79829145799886,35.79829145799886,35.79829145799886,35.95962558300016,35.95962558300016,637905,001,2023-03-18_09h09.39.701,simple VEP,2022.2.4,None,
69,0,69,0,35.95962558300016,35.95962558300016,36.12073808299829,36.12073808299829,36.12073808299829,36.12073808299829,36.28250366700013,36.28250366700013,637905,001,2023-03-18_09h09.39.701,simple VEP,2022.2.4,None,
70,0,70,0,36.28250366700013,36.28250366700013,36.44920899999852,36.44920899999852,36.44920899999852,36.44920899999852,36.622144291999575,36.622144291999575,637905,001,2023-03-18_09h09.39.701,simple VEP,2022.2.4,None,
71,0,71,0,36.622144291999575,36.622144291999575,36.786001707998366,36.786001707998366,36.786001707998366,36.786001707998366,36.95564487500087,36.95564487500087,637905,001,2023-03-18_09h09.39.701,simple VEP,2022.2.4,None,
72,0,72,0,36.95564487500087,36.95564487500087,37.12128779200066,37.12128779200066,37.12128779200066,37.12128779200066,37.291200832998584,37.291200832998584,637905,001,2023-03-18_09h09.39.701,simple VEP,2022.2.4,None,
73,0,73,0,37.291200832998584,37.291200832998584,37.456091625001136,37.456091625001136,37.456091625001136,37.456091625001136,37.61989762500161,37.61989762500161,637905,001,2023-03-18_09h09.39.701,simple VEP,2022.2.4,None,
74,0,74,0,37.61989762500161,37.61989762500161,37.78419666699847,37.78419666699847,37.78419666699847,37.78419666699847,37.950623332999385,37.950623332999385,637905,001,2023-03-18_09h09.39.701,simple VEP,2022.2.4,None,
75,0,75,0,37.950623332999385,37.950623332999385,38.11071937499946,38.11071937499946,38.11071937499946,38.11071937499946,38.275410124999325,38.275410124999325,637905,001,2023-03-18_09h09.39.701,simple VEP,2022.2.4,None,
76,0,76,0,38.275410124999325,38.275410124999325,38.45203449999826,38.45203449999826,38.45203449999826,38.45203449999826,38.61489441700178,38.61489441700178,637905,001,2023-03-18_09h09.39.701,simple VEP,2022.2.4,None,
77,0,77,0,38.61489441700178,38.61489441700178,38.79307841699847,38.79307841699847,38.79307841699847,38.79307841699847,38.953524958000344,38.953524958000344,637905,001,2023-03-18_09h09.39.701,simple VEP,2022.2.4,None,
78,0,78,0,38.953524958000344,38.953524958000344,39.112640125000325,39.112640125000325,39.112640125000325,39.112640125000325,39.28167595800187,39.28167595800187,637905,001,2023-03-18_09h09.39.701,simple VEP,2022.2.4,None,
79,0,79,0,39.28167595800187,39.28167595800187,39.44492466700103,39.44492466700103,39.44492466700103,39.44492466700103,39.610114082999644,39.610114082999644,637905,001,2023-03-18_09h09.39.701,simple VEP,2022.2.4,None,
80,0,80,0,39.610114082999644,39.610114082999644,39.7934401249986,39.7934401249986,39.7934401249986,39.7934401249986,39.96039212500182,39.96039212500182,637905,001,2023-03-18_09h09.39.701,simple VEP,2022.2.4,None,
81,0,81,0,39.96039212500182,39.96039212500182,40.127918166999734,40.127918166999734,40.127918166999734,40.127918166999734,40.3098382499993,40.3098382499993,637905,001,2023-03-18_09h09.39.701,simple VEP,2022.2.4,None,
82,0,82,0,40.3098382499993,40.3098382499993,40.47633812500135,40.47633812500135,40.47633812500135,40.47633812500135,40.64009575000091,40.64009575000091,637905,001,2023-03-18_09h09.39.701,simple VEP,2022.2.4,None,
83,0,83,0,40.64009575000091,40.64009575000091,40.80283179199978,40.80283179199978,40.80283179199978,40.80283179199978,40.97582012500061,40.97582012500061,637905,001,2023-03-18_09h09.39.701,simple VEP,2022.2.4,None,
84,0,84,0,40.97582012500061,40.97582012500061,41.14394650000031,41.14394650000031,41.14394650000031,41.14394650000031,41.30643358299858,41.30643358299858,637905,001,2023-03-18_09h09.39.701,simple VEP,2022.2.4,None,
85,0,85,0,41.30643358299858,41.30643358299858,41.470266291998996,41.470266291998996,41.470266291998996,41.470266291998996,41.63158616700093,41.63158616700093,637905,001,2023-03-18_09h09.39.701,simple VEP,2022.2.4,None,
86,0,86,0,41.63158616700093,41.63158616700093,41.800978625000425,41.800978625000425,41.800978625000425,41.800978625000425,41.97625162500117,41.97625162500117,637905,001,2023-03-18_09h09.39.701,simple VEP,2022.2.4,None,
87,0,87,0,41.97625162500117,41.97625162500117,42.159686833001615,42.159686833001615,42.159686833001615,42.159686833001615,42.32710504200077,42.32710504200077,637905,001,2023-03-18_09h09.39.701,simple VEP,2022.2.4,None,
88,0,88,0,42.32710504200077,42.32710504200077,42.49164466699949,42.49164466699949,42.49164466699949,42.49164466699949,42.65551612499985,42.65551612499985,637905,001,2023-03-18_09h09.39.701,simple VEP,2022.2.4,None,
89,0,89,0,42.65551612499985,42.65551612499985,42.83011612499831,42.83011612499831,42.83011612499831,42.83011612499831,43.01001066699973,43.01001066699973,637905,001,2023-03-18_09h09.39.701,simple VEP,2022.2.4,None,
90,0,90,0,43.01001066699973,43.01001066699973,43.19342270800189,43.19342270800189,43.19342270800189,43.19342270800189,43.3560025830011,43.3560025830011,637905,001,2023-03-18_09h09.39.701,simple VEP,2022.2.4,None,
91,0,91,0,43.3560025830011,43.3560025830011,43.51929966700118,43.51929966700118,43.51929966700118,43.51929966700118,43.694733583000925,43.694733583000925,637905,001,2023-03-18_09h09.39.701,simple VEP,2022.2.4,None,
92,0,92,0,43.694733583000925,43.694733583000925,43.85226200000034,43.85226200000034,43.85226200000034,43.85226200000034,44.01909266700022,44.01909266700022,637905,001,2023-03-18_09h09.39.701,simple VEP,2022.2.4,None,
93,0,93,0,44.01909266700022,44.01909266700022,44.183735333001096,44.183735333001096,44.183735333001096,44.183735333001096,44.355306124998606,44.355306124998606,637905,001,2023-03-18_09h09.39.701,simple VEP,2022.2.4,None,
94,0,94,0,44.355306124998606,44.355306124998606,44.515340292000474,44.515340292000474,44.515340292000474,44.515340292000474,44.68660737499886,44.68660737499886,637905,001,2023-03-18_09h09.39.701,simple VEP,2022.2.4,None,
95,0,95,0,44.68660737499886,44.68660737499886,44.84564645800128,44.84564645800128,44.84564645800128,44.84564645800128,45.01467649999904,45.01467649999904,637905,001,2023-03-18_09h09.39.701,simple VEP,2022.2.4,None,
96,0,96,0,45.01467649999904,45.01467649999904,45.176292291998834,45.176292291998834,45.176292291998834,45.176292291998834,45.33499295799993,45.33499295799993,637905,001,2023-03-18_09h09.39.701,simple VEP,2022.2.4,None,
97,0,97,0,45.33499295799993,45.33499295799993,45.49883791699904,45.49883791699904,45.49883791699904,45.49883791699904,45.676223457998276,45.676223457998276,637905,001,2023-03-18_09h09.39.701,simple VEP,2022.2.4,None,
98,0,98,0,45.676223457998276,45.676223457998276,45.84160345800046,45.84160345800046,45.84160345800046,45.84160345800046,46.00439791700046,46.00439791700046,637905,001,2023-03-18_09h09.39.701,simple VEP,2022.2.4,None,
99,0,99,0,46.00439791700046,46.00439791700046,46.172347167001135,46.172347167001135,46.172347167001135,46.172347167001135,46.328849207999156,46.328849207999156,637905,001,2023-03-18_09h09.39.701,simple VEP,2022.2.4,None,
