trials.thisRepN,trials.thisTrialN,trials.thisN,trials.thisIndex,trials_2.thisRepN,trials_2.thisTrialN,trials_2.thisN,trials_2.thisIndex,image.started,fixation.started,image.stopped,fixation.stopped,image_2.started,fixation_2.started,image_2.stopped,fixation_2.stopped,newfix.started,newfix.stopped,participant,session,date,expName,psychopyVersion,frameRate,
0,0,0,0,,,,,11.423493166999833,11.423493166999833,11.500334374999511,11.500334374999511,11.500334374999511,11.500334374999511,11.562963833999675,11.562963833999675,,,638027,001,2023-03-18_09h52.07.212,simple VEP,2022.2.4,None,
1,0,1,0,,,,,11.562963833999675,11.562963833999675,11.630148208998435,11.630148208998435,11.630148208998435,11.630148208998435,11.697330584000156,11.697330584000156,,,638027,001,2023-03-18_09h52.07.212,simple VEP,2022.2.4,None,
2,0,2,0,,,,,11.697330584000156,11.697330584000156,11.764603625000746,11.764603625000746,11.764603625000746,11.764603625000746,11.826362125000742,11.826362125000742,,,638027,001,2023-03-18_09h52.07.212,simple VEP,2022.2.4,None,
3,0,3,0,,,,,11.826362125000742,11.826362125000742,11.893003958997724,11.893003958997724,11.893003958997724,11.893003958997724,11.955811708998226,11.955811708998226,,,638027,001,2023-03-18_09h52.07.212,simple VEP,2022.2.4,None,
4,0,4,0,,,,,11.955811708998226,11.955811708998226,12.01703274999818,12.01703274999818,12.01703274999818,12.01703274999818,12.083462709000742,12.083462709000742,,,638027,001,2023-03-18_09h52.07.212,simple VEP,2022.2.4,None,
5,0,5,0,,,,,12.083462709000742,12.083462709000742,12.147557291998965,12.147557291998965,12.147557291998965,12.147557291998965,12.206309249999322,12.206309249999322,,,638027,001,2023-03-18_09h52.07.212,simple VEP,2022.2.4,None,
6,0,6,0,,,,,12.206309249999322,12.206309249999322,12.264348333999806,12.264348333999806,12.264348333999806,12.264348333999806,12.323207334000472,12.323207334000472,,,638027,001,2023-03-18_09h52.07.212,simple VEP,2022.2.4,None,
7,0,7,0,,,,,12.323207334000472,12.323207334000472,12.382376292000117,12.382376292000117,12.382376292000117,12.382376292000117,12.447745124998619,12.447745124998619,,,638027,001,2023-03-18_09h52.07.212,simple VEP,2022.2.4,None,
8,0,8,0,,,,,12.447745124998619,12.447745124998619,12.505839916997502,12.505839916997502,12.505839916997502,12.505839916997502,12.566221499997482,12.566221499997482,,,638027,001,2023-03-18_09h52.07.212,simple VEP,2022.2.4,None,
9,0,9,0,,,,,12.566221499997482,12.566221499997482,12.630328416998964,12.630328416998964,12.630328416998964,12.630328416998964,12.689204583999526,12.689204583999526,,,638027,001,2023-03-18_09h52.07.212,simple VEP,2022.2.4,None,
10,0,10,0,,,,,12.689204583999526,12.689204583999526,12.748063541999727,12.748063541999727,12.748063541999727,12.748063541999727,12.816571958999702,12.816571958999702,,,638027,001,2023-03-18_09h52.07.212,simple VEP,2022.2.4,None,
11,0,11,0,,,,,12.816571958999702,12.816571958999702,12.881873416998133,12.881873416998133,12.881873416998133,12.881873416998133,12.941029999998136,12.941029999998136,,,638027,001,2023-03-18_09h52.07.212,simple VEP,2022.2.4,None,
12,0,12,0,,,,,12.941029999998136,12.941029999998136,13.001562875000673,13.001562875000673,13.001562875000673,13.001562875000673,13.064888708999206,13.064888708999206,,,638027,001,2023-03-18_09h52.07.212,simple VEP,2022.2.4,None,
13,0,13,0,,,,,13.064888708999206,13.064888708999206,13.129746291997435,13.129746291997435,13.129746291997435,13.129746291997435,13.190344874998118,13.190344874998118,,,638027,001,2023-03-18_09h52.07.212,simple VEP,2022.2.4,None,
14,0,14,0,,,,,13.190344874998118,13.190344874998118,13.255193917000724,13.255193917000724,13.255193917000724,13.255193917000724,13.323074500000075,13.323074500000075,,,638027,001,2023-03-18_09h52.07.212,simple VEP,2022.2.4,None,
15,0,15,0,,,,,13.323074500000075,13.323074500000075,13.38900491700042,13.38900491700042,13.38900491700042,13.38900491700042,13.447717208997346,13.447717208997346,,,638027,001,2023-03-18_09h52.07.212,simple VEP,2022.2.4,None,
16,0,16,0,,,,,13.447717208997346,13.447717208997346,13.512660208998568,13.512660208998568,13.512660208998568,13.512660208998568,13.573481666997395,13.573481666997395,,,638027,001,2023-03-18_09h52.07.212,simple VEP,2022.2.4,None,
17,0,17,0,,,,,13.573481666997395,13.573481666997395,13.631061916999897,13.631061916999897,13.631061916999897,13.631061916999897,13.696413375000702,13.696413375000702,,,638027,001,2023-03-18_09h52.07.212,simple VEP,2022.2.4,None,
18,0,18,0,,,,,13.696413375000702,13.696413375000702,13.75669554200067,13.75669554200067,13.75669554200067,13.75669554200067,13.822543499998574,13.822543499998574,,,638027,001,2023-03-18_09h52.07.212,simple VEP,2022.2.4,None,
19,0,19,0,,,,,13.822543499998574,13.822543499998574,13.880878666997887,13.880878666997887,13.880878666997887,13.880878666997887,13.939148875000683,13.939148875000683,,,638027,001,2023-03-18_09h52.07.212,simple VEP,2022.2.4,None,
20,0,20,0,,,,,13.939148875000683,13.939148875000683,13.997411291999015,13.997411291999015,13.997411291999015,13.997411291999015,14.065016624997952,14.065016624997952,,,638027,001,2023-03-18_09h52.07.212,simple VEP,2022.2.4,None,
21,0,21,0,,,,,14.065016624997952,14.065016624997952,14.125895249999303,14.125895249999303,14.125895249999303,14.125895249999303,14.190908999997191,14.190908999997191,,,638027,001,2023-03-18_09h52.07.212,simple VEP,2022.2.4,None,
22,0,22,0,,,,,14.190908999997191,14.190908999997191,14.24808391699844,14.24808391699844,14.24808391699844,14.24808391699844,14.315198749998672,14.315198749998672,,,638027,001,2023-03-18_09h52.07.212,simple VEP,2022.2.4,None,
23,0,23,0,,,,,14.315198749998672,14.315198749998672,14.380163541998627,14.380163541998627,14.380163541998627,14.380163541998627,14.4401876669981,14.4401876669981,,,638027,001,2023-03-18_09h52.07.212,simple VEP,2022.2.4,None,
24,0,24,0,,,,,14.4401876669981,14.4401876669981,14.498787541997444,14.498787541997444,14.498787541997444,14.498787541997444,14.564798084000358,14.564798084000358,,,638027,001,2023-03-18_09h52.07.212,simple VEP,2022.2.4,None,
25,0,25,0,,,,,14.564798084000358,14.564798084000358,14.624270208998496,14.624270208998496,14.624270208998496,14.624270208998496,14.688830208997388,14.688830208997388,,,638027,001,2023-03-18_09h52.07.212,simple VEP,2022.2.4,None,
26,0,26,0,,,,,14.688830208997388,14.688830208997388,14.748182333998557,14.748182333998557,14.748182333998557,14.748182333998557,14.808897874998365,14.808897874998365,,,638027,001,2023-03-18_09h52.07.212,simple VEP,2022.2.4,None,
27,0,27,0,,,,,14.808897874998365,14.808897874998365,14.872904458999983,14.872904458999983,14.872904458999983,14.872904458999983,14.931229374997201,14.931229374997201,,,638027,001,2023-03-18_09h52.07.212,simple VEP,2022.2.4,None,
28,0,28,0,,,,,14.931229374997201,14.931229374997201,14.989511666997714,14.989511666997714,14.989511666997714,14.989511666997714,15.05697175000023,15.05697175000023,,,638027,001,2023-03-18_09h52.07.212,simple VEP,2022.2.4,None,
29,0,29,0,,,,,15.05697175000023,15.05697175000023,15.122644749997562,15.122644749997562,15.122644749997562,15.122644749997562,15.181111416997737,15.181111416997737,,,638027,001,2023-03-18_09h52.07.212,simple VEP,2022.2.4,None,
30,0,30,0,,,,,15.181111416997737,15.181111416997737,15.239203666998947,15.239203666998947,15.239203666998947,15.239203666998947,15.29827320899858,15.29827320899858,,,638027,001,2023-03-18_09h52.07.212,simple VEP,2022.2.4,None,
31,0,31,0,,,,,15.29827320899858,15.29827320899858,15.362589791999198,15.362589791999198,15.362589791999198,15.362589791999198,15.422616959000152,15.422616959000152,,,638027,001,2023-03-18_09h52.07.212,simple VEP,2022.2.4,None,
32,0,32,0,,,,,15.422616959000152,15.422616959000152,15.47934608399737,15.47934608399737,15.47934608399737,15.47934608399737,15.556197624999186,15.556197624999186,,,638027,001,2023-03-18_09h52.07.212,simple VEP,2022.2.4,None,
33,0,33,0,,,,,15.556197624999186,15.556197624999186,15.61336479199963,15.61336479199963,15.61336479199963,15.61336479199963,15.67421574999753,15.67421574999753,,,638027,001,2023-03-18_09h52.07.212,simple VEP,2022.2.4,None,
34,0,34,0,,,,,15.67421574999753,15.67421574999753,15.732684667000285,15.732684667000285,15.732684667000285,15.732684667000285,15.798857709000004,15.798857709000004,,,638027,001,2023-03-18_09h52.07.212,simple VEP,2022.2.4,None,
35,0,35,0,,,,,15.798857709000004,15.798857709000004,15.864629583997157,15.864629583997157,15.864629583997157,15.864629583997157,15.93799883400061,15.93799883400061,,,638027,001,2023-03-18_09h52.07.212,simple VEP,2022.2.4,None,
36,0,36,0,,,,,15.93799883400061,15.93799883400061,15.995589541998925,15.995589541998925,15.995589541998925,15.995589541998925,16.05648137499884,16.05648137499884,,,638027,001,2023-03-18_09h52.07.212,simple VEP,2022.2.4,None,
37,0,37,0,,,,,16.05648137499884,16.05648137499884,16.114764499998273,16.114764499998273,16.114764499998273,16.114764499998273,16.17407191699749,16.17407191699749,,,638027,001,2023-03-18_09h52.07.212,simple VEP,2022.2.4,None,
38,0,38,0,,,,,16.17407191699749,16.17407191699749,16.239382208997995,16.239382208997995,16.239382208997995,16.239382208997995,16.29855637500077,16.29855637500077,,,638027,001,2023-03-18_09h52.07.212,simple VEP,2022.2.4,None,
39,0,39,0,,,,,16.29855637500077,16.29855637500077,16.365520666997327,16.365520666997327,16.365520666997327,16.365520666997327,16.429273041998385,16.429273041998385,,,638027,001,2023-03-18_09h52.07.212,simple VEP,2022.2.4,None,
40,0,40,0,,,,,16.429273041998385,16.429273041998385,16.489024499998777,16.489024499998777,16.489024499998777,16.489024499998777,16.548359541997343,16.548359541997343,,,638027,001,2023-03-18_09h52.07.212,simple VEP,2022.2.4,None,
41,0,41,0,,,,,16.548359541997343,16.548359541997343,16.61315199999808,16.61315199999808,16.61315199999808,16.61315199999808,16.673110416999407,16.673110416999407,,,638027,001,2023-03-18_09h52.07.212,simple VEP,2022.2.4,None,
42,0,42,0,,,,,16.673110416999407,16.673110416999407,16.731368333999853,16.731368333999853,16.731368333999853,16.731368333999853,16.791314374997455,16.791314374997455,,,638027,001,2023-03-18_09h52.07.212,simple VEP,2022.2.4,None,
43,0,43,0,,,,,16.791314374997455,16.791314374997455,16.856422958997427,16.856422958997427,16.856422958997427,16.856422958997427,16.921890334000636,16.921890334000636,,,638027,001,2023-03-18_09h52.07.212,simple VEP,2022.2.4,None,
44,0,44,0,,,,,16.921890334000636,16.921890334000636,16.982274916997994,16.982274916997994,16.982274916997994,16.982274916997994,17.048795209000673,17.048795209000673,,,638027,001,2023-03-18_09h52.07.212,simple VEP,2022.2.4,None,
45,0,45,0,,,,,17.048795209000673,17.048795209000673,17.115837083998485,17.115837083998485,17.115837083998485,17.115837083998485,17.182374833999347,17.182374833999347,,,638027,001,2023-03-18_09h52.07.212,simple VEP,2022.2.4,None,
46,0,46,0,,,,,17.182374833999347,17.182374833999347,17.256479916999524,17.256479916999524,17.256479916999524,17.256479916999524,17.315345708997484,17.315345708997484,,,638027,001,2023-03-18_09h52.07.212,simple VEP,2022.2.4,None,
47,0,47,0,,,,,17.315345708997484,17.315345708997484,17.372595666998677,17.372595666998677,17.372595666998677,17.372595666998677,17.43230741699881,17.43230741699881,,,638027,001,2023-03-18_09h52.07.212,simple VEP,2022.2.4,None,
48,0,48,0,,,,,17.43230741699881,17.43230741699881,17.497569916999055,17.497569916999055,17.497569916999055,17.497569916999055,17.555893708999065,17.555893708999065,,,638027,001,2023-03-18_09h52.07.212,simple VEP,2022.2.4,None,
49,0,49,0,,,,,17.555893708999065,17.555893708999065,17.615179583997815,17.615179583997815,17.615179583997815,17.615179583997815,17.6796917089996,17.6796917089996,,,638027,001,2023-03-18_09h52.07.212,simple VEP,2022.2.4,None,
50,0,50,0,,,,,17.6796917089996,17.6796917089996,17.74292579199755,17.74292579199755,17.74292579199755,17.74292579199755,17.806499541999074,17.806499541999074,,,638027,001,2023-03-18_09h52.07.212,simple VEP,2022.2.4,None,
51,0,51,0,,,,,17.806499541999074,17.806499541999074,17.87234654200074,17.87234654200074,17.87234654200074,17.87234654200074,17.932025166999665,17.932025166999665,,,638027,001,2023-03-18_09h52.07.212,simple VEP,2022.2.4,None,
52,0,52,0,,,,,17.932025166999665,17.932025166999665,17.997229459000664,17.997229459000664,17.997229459000664,17.997229459000664,18.056117166997865,18.056117166997865,,,638027,001,2023-03-18_09h52.07.212,simple VEP,2022.2.4,None,
53,0,53,0,,,,,18.056117166997865,18.056117166997865,18.117134708998492,18.117134708998492,18.117134708998492,18.117134708998492,18.180458999999246,18.180458999999246,,,638027,001,2023-03-18_09h52.07.212,simple VEP,2022.2.4,None,
54,0,54,0,,,,,18.180458999999246,18.180458999999246,18.247136333997332,18.247136333997332,18.247136333997332,18.247136333997332,18.31570904199907,18.31570904199907,,,638027,001,2023-03-18_09h52.07.212,simple VEP,2022.2.4,None,
55,0,55,0,,,,,18.31570904199907,18.31570904199907,18.37996291699892,18.37996291699892,18.37996291699892,18.37996291699892,18.440345916998922,18.440345916998922,,,638027,001,2023-03-18_09h52.07.212,simple VEP,2022.2.4,None,
56,0,56,0,,,,,18.440345916998922,18.440345916998922,18.4960702089993,18.4960702089993,18.4960702089993,18.4960702089993,18.557631125000626,18.557631125000626,,,638027,001,2023-03-18_09h52.07.212,simple VEP,2022.2.4,None,
57,0,57,0,,,,,18.557631125000626,18.557631125000626,18.622515416998795,18.622515416998795,18.622515416998795,18.622515416998795,18.681609999999637,18.681609999999637,,,638027,001,2023-03-18_09h52.07.212,simple VEP,2022.2.4,None,
58,0,58,0,,,,,18.681609999999637,18.681609999999637,18.74781983399953,18.74781983399953,18.74781983399953,18.74781983399953,18.80864712499897,18.80864712499897,,,638027,001,2023-03-18_09h52.07.212,simple VEP,2022.2.4,None,
59,0,59,0,,,,,18.80864712499897,18.80864712499897,18.872780916997726,18.872780916997726,18.872780916997726,18.872780916997726,18.931696958999964,18.931696958999964,,,638027,001,2023-03-18_09h52.07.212,simple VEP,2022.2.4,None,
60,0,60,0,,,,,18.931696958999964,18.931696958999964,19.000783416999184,19.000783416999184,19.000783416999184,19.000783416999184,19.061869375000242,19.061869375000242,,,638027,001,2023-03-18_09h52.07.212,simple VEP,2022.2.4,None,
61,0,61,0,,,,,19.061869375000242,19.061869375000242,19.12254262499846,19.12254262499846,19.12254262499846,19.12254262499846,19.182291958997666,19.182291958997666,,,638027,001,2023-03-18_09h52.07.212,simple VEP,2022.2.4,None,
62,0,62,0,,,,,19.182291958997666,19.182291958997666,19.24796866699762,19.24796866699762,19.24796866699762,19.24796866699762,19.308624875000532,19.308624875000532,,,638027,001,2023-03-18_09h52.07.212,simple VEP,2022.2.4,None,
63,0,63,0,,,,,19.308624875000532,19.308624875000532,19.373716041998705,19.373716041998705,19.373716041998705,19.373716041998705,19.43605016699803,19.43605016699803,,,638027,001,2023-03-18_09h52.07.212,simple VEP,2022.2.4,None,
64,0,64,0,,,,,19.43605016699803,19.43605016699803,19.49747600000046,19.49747600000046,19.49747600000046,19.49747600000046,19.555862749999505,19.555862749999505,,,638027,001,2023-03-18_09h52.07.212,simple VEP,2022.2.4,None,
65,0,65,0,,,,,19.555862749999505,19.555862749999505,19.614923375000217,19.614923375000217,19.614923375000217,19.614923375000217,19.67406520899749,19.67406520899749,,,638027,001,2023-03-18_09h52.07.212,simple VEP,2022.2.4,None,
66,0,66,0,,,,,19.67406520899749,19.67406520899749,19.731142666998494,19.731142666998494,19.731142666998494,19.731142666998494,19.790386624998064,19.790386624998064,,,638027,001,2023-03-18_09h52.07.212,simple VEP,2022.2.4,None,
67,0,67,0,,,,,19.790386624998064,19.790386624998064,19.855988749997778,19.855988749997778,19.855988749997778,19.855988749997778,19.9152502500001,19.9152502500001,,,638027,001,2023-03-18_09h52.07.212,simple VEP,2022.2.4,None,
68,0,68,0,,,,,19.9152502500001,19.9152502500001,19.980406874998152,19.980406874998152,19.980406874998152,19.980406874998152,20.04024320899771,20.04024320899771,,,638027,001,2023-03-18_09h52.07.212,simple VEP,2022.2.4,None,
69,0,69,0,,,,,20.04024320899771,20.04024320899771,20.098084334000305,20.098084334000305,20.098084334000305,20.098084334000305,20.16424408400053,20.16424408400053,,,638027,001,2023-03-18_09h52.07.212,simple VEP,2022.2.4,None,
70,0,70,0,,,,,20.16424408400053,20.16424408400053,20.2226321249982,20.2226321249982,20.2226321249982,20.2226321249982,20.28174104199934,20.28174104199934,,,638027,001,2023-03-18_09h52.07.212,simple VEP,2022.2.4,None,
71,0,71,0,,,,,20.28174104199934,20.28174104199934,20.349950333999004,20.349950333999004,20.349950333999004,20.349950333999004,20.415061874999083,20.415061874999083,,,638027,001,2023-03-18_09h52.07.212,simple VEP,2022.2.4,None,
72,0,72,0,,,,,20.415061874999083,20.415061874999083,20.481167499998264,20.481167499998264,20.481167499998264,20.481167499998264,20.54247787499844,20.54247787499844,,,638027,001,2023-03-18_09h52.07.212,simple VEP,2022.2.4,None,
73,0,73,0,,,,,20.54247787499844,20.54247787499844,20.606734624998353,20.606734624998353,20.606734624998353,20.606734624998353,20.663565291997656,20.663565291997656,,,638027,001,2023-03-18_09h52.07.212,simple VEP,2022.2.4,None,
74,0,74,0,,,,,20.663565291997656,20.663565291997656,20.7294069999989,20.7294069999989,20.7294069999989,20.7294069999989,20.7933607499981,20.7933607499981,,,638027,001,2023-03-18_09h52.07.212,simple VEP,2022.2.4,None,
75,0,75,0,,,,,20.7933607499981,20.7933607499981,20.855621749997226,20.855621749997226,20.855621749997226,20.855621749997226,20.915217041998403,20.915217041998403,,,638027,001,2023-03-18_09h52.07.212,simple VEP,2022.2.4,None,
76,0,76,0,,,,,20.915217041998403,20.915217041998403,20.97301033400072,20.97301033400072,20.97301033400072,20.97301033400072,21.033070666999265,21.033070666999265,,,638027,001,2023-03-18_09h52.07.212,simple VEP,2022.2.4,None,
77,0,77,0,,,,,21.033070666999265,21.033070666999265,21.09814383399862,21.09814383399862,21.09814383399862,21.09814383399862,21.167962916999386,21.167962916999386,,,638027,001,2023-03-18_09h52.07.212,simple VEP,2022.2.4,None,
78,0,78,0,,,,,21.167962916999386,21.167962916999386,21.23331170899837,21.23331170899837,21.23331170899837,21.23331170899837,21.29838533399743,21.29838533399743,,,638027,001,2023-03-18_09h52.07.212,simple VEP,2022.2.4,None,
79,0,79,0,,,,,21.29838533399743,21.29838533399743,21.363826333999896,21.363826333999896,21.363826333999896,21.363826333999896,21.422363334000693,21.422363334000693,,,638027,001,2023-03-18_09h52.07.212,simple VEP,2022.2.4,None,
80,0,80,0,,,,,21.422363334000693,21.422363334000693,21.480518124997616,21.480518124997616,21.480518124997616,21.480518124997616,21.540251791997434,21.540251791997434,,,638027,001,2023-03-18_09h52.07.212,simple VEP,2022.2.4,None,
81,0,81,0,,,,,21.540251791997434,21.540251791997434,21.606169083999703,21.606169083999703,21.606169083999703,21.606169083999703,21.66336174999742,21.66336174999742,,,638027,001,2023-03-18_09h52.07.212,simple VEP,2022.2.4,None,
82,0,82,0,,,,,21.66336174999742,21.66336174999742,21.722550041999057,21.722550041999057,21.722550041999057,21.722550041999057,21.78166658400005,21.78166658400005,,,638027,001,2023-03-18_09h52.07.212,simple VEP,2022.2.4,None,
83,0,83,0,,,,,21.78166658400005,21.78166658400005,21.847178291998716,21.847178291998716,21.847178291998716,21.847178291998716,21.922158541998215,21.922158541998215,,,638027,001,2023-03-18_09h52.07.212,simple VEP,2022.2.4,None,
84,0,84,0,,,,,21.922158541998215,21.922158541998215,21.981536416999006,21.981536416999006,21.981536416999006,21.981536416999006,22.050565416997415,22.050565416997415,,,638027,001,2023-03-18_09h52.07.212,simple VEP,2022.2.4,None,
85,0,85,0,,,,,22.050565416997415,22.050565416997415,22.11231520900037,22.11231520900037,22.11231520900037,22.11231520900037,22.173011124999903,22.173011124999903,,,638027,001,2023-03-18_09h52.07.212,simple VEP,2022.2.4,None,
86,0,86,0,,,,,22.173011124999903,22.173011124999903,22.230873374999646,22.230873374999646,22.230873374999646,22.230873374999646,22.28912974999912,22.28912974999912,,,638027,001,2023-03-18_09h52.07.212,simple VEP,2022.2.4,None,
87,0,87,0,,,,,22.28912974999912,22.28912974999912,22.348470917000668,22.348470917000668,22.348470917000668,22.348470917000668,22.406878416997642,22.406878416997642,,,638027,001,2023-03-18_09h52.07.212,simple VEP,2022.2.4,None,
88,0,88,0,,,,,22.406878416997642,22.406878416997642,22.464114166999934,22.464114166999934,22.464114166999934,22.464114166999934,22.535438625000097,22.535438625000097,,,638027,001,2023-03-18_09h52.07.212,simple VEP,2022.2.4,None,
89,0,89,0,,,,,22.535438625000097,22.535438625000097,22.59529983399989,22.59529983399989,22.59529983399989,22.59529983399989,22.6561432089984,22.6561432089984,,,638027,001,2023-03-18_09h52.07.212,simple VEP,2022.2.4,None,
90,0,90,0,,,,,22.6561432089984,22.6561432089984,22.714513958999305,22.714513958999305,22.714513958999305,22.714513958999305,22.77438487499967,22.77438487499967,,,638027,001,2023-03-18_09h52.07.212,simple VEP,2022.2.4,None,
91,0,91,0,,,,,22.77438487499967,22.77438487499967,22.839180833998398,22.839180833998398,22.839180833998398,22.839180833998398,22.89820524999959,22.89820524999959,,,638027,001,2023-03-18_09h52.07.212,simple VEP,2022.2.4,None,
92,0,92,0,,,,,22.89820524999959,22.89820524999959,22.96915049999734,22.96915049999734,22.96915049999734,22.96915049999734,23.032125083998835,23.032125083998835,,,638027,001,2023-03-18_09h52.07.212,simple VEP,2022.2.4,None,
93,0,93,0,,,,,23.032125083998835,23.032125083998835,23.094961209000758,23.094961209000758,23.094961209000758,23.094961209000758,23.15725820899752,23.15725820899752,,,638027,001,2023-03-18_09h52.07.212,simple VEP,2022.2.4,None,
94,0,94,0,,,,,23.15725820899752,23.15725820899752,23.22251787499772,23.22251787499772,23.22251787499772,23.22251787499772,23.281745124997542,23.281745124997542,,,638027,001,2023-03-18_09h52.07.212,simple VEP,2022.2.4,None,
95,0,95,0,,,,,23.281745124997542,23.281745124997542,23.33912729199801,23.33912729199801,23.33912729199801,23.33912729199801,23.398875791997853,23.398875791997853,,,638027,001,2023-03-18_09h52.07.212,simple VEP,2022.2.4,None,
96,0,96,0,,,,,23.398875791997853,23.398875791997853,23.468803291998483,23.468803291998483,23.468803291998483,23.468803291998483,23.530354499998793,23.530354499998793,,,638027,001,2023-03-18_09h52.07.212,simple VEP,2022.2.4,None,
97,0,97,0,,,,,23.530354499998793,23.530354499998793,23.588902666997456,23.588902666997456,23.588902666997456,23.588902666997456,23.649103208997985,23.649103208997985,,,638027,001,2023-03-18_09h52.07.212,simple VEP,2022.2.4,None,
98,0,98,0,,,,,23.649103208997985,23.649103208997985,23.71556554199924,23.71556554199924,23.71556554199924,23.71556554199924,23.779691833999095,23.779691833999095,,,638027,001,2023-03-18_09h52.07.212,simple VEP,2022.2.4,None,
99,0,99,0,,,,,23.779691833999095,23.779691833999095,23.839469291997375,23.839469291997375,23.839469291997375,23.839469291997375,23.897953374998906,23.897953374998906,,,638027,001,2023-03-18_09h52.07.212,simple VEP,2022.2.4,None,
100,0,100,0,,,,,23.897953374998906,23.897953374998906,23.96435658399787,23.96435658399787,23.96435658399787,23.96435658399787,24.023769542000082,24.023769542000082,,,638027,001,2023-03-18_09h52.07.212,simple VEP,2022.2.4,None,
101,0,101,0,,,,,24.023769542000082,24.023769542000082,24.089147374997992,24.089147374997992,24.089147374997992,24.089147374997992,24.14835391700035,24.14835391700035,,,638027,001,2023-03-18_09h52.07.212,simple VEP,2022.2.4,None,
102,0,102,0,,,,,24.14835391700035,24.14835391700035,24.20606562499961,24.20606562499961,24.20606562499961,24.20606562499961,24.26513045899992,24.26513045899992,,,638027,001,2023-03-18_09h52.07.212,simple VEP,2022.2.4,None,
103,0,103,0,,,,,24.26513045899992,24.26513045899992,24.334488374999637,24.334488374999637,24.334488374999637,24.334488374999637,24.397580958997423,24.397580958997423,,,638027,001,2023-03-18_09h52.07.212,simple VEP,2022.2.4,None,
104,0,104,0,,,,,24.397580958997423,24.397580958997423,24.455824374999793,24.455824374999793,24.455824374999793,24.455824374999793,24.516038624999055,24.516038624999055,,,638027,001,2023-03-18_09h52.07.212,simple VEP,2022.2.4,None,
105,0,105,0,,,,,24.516038624999055,24.516038624999055,24.575435583999933,24.575435583999933,24.575435583999933,24.575435583999933,24.639272000000346,24.639272000000346,,,638027,001,2023-03-18_09h52.07.212,simple VEP,2022.2.4,None,
106,0,106,0,,,,,24.639272000000346,24.639272000000346,24.698286874998303,24.698286874998303,24.698286874998303,24.698286874998303,24.76766833399961,24.76766833399961,,,638027,001,2023-03-18_09h52.07.212,simple VEP,2022.2.4,None,
107,0,107,0,,,,,24.76766833399961,24.76766833399961,24.830075124998984,24.830075124998984,24.830075124998984,24.830075124998984,24.88903904199833,24.88903904199833,,,638027,001,2023-03-18_09h52.07.212,simple VEP,2022.2.4,None,
108,0,108,0,,,,,24.88903904199833,24.88903904199833,24.948054749998846,24.948054749998846,24.948054749998846,24.948054749998846,25.015326333999838,25.015326333999838,,,638027,001,2023-03-18_09h52.07.212,simple VEP,2022.2.4,None,
109,0,109,0,,,,,25.015326333999838,25.015326333999838,25.073229375000665,25.073229375000665,25.073229375000665,25.073229375000665,25.131112249997386,25.131112249997386,,,638027,001,2023-03-18_09h52.07.212,simple VEP,2022.2.4,None,
110,0,110,0,,,,,25.131112249997386,25.131112249997386,25.190768249998655,25.190768249998655,25.190768249998655,25.190768249998655,25.262551791998703,25.262551791998703,,,638027,001,2023-03-18_09h52.07.212,simple VEP,2022.2.4,None,
111,0,111,0,,,,,25.262551791998703,25.262551791998703,25.32246333399962,25.32246333399962,25.32246333399962,25.32246333399962,25.38017295899772,25.38017295899772,,,638027,001,2023-03-18_09h52.07.212,simple VEP,2022.2.4,None,
112,0,112,0,,,,,25.38017295899772,25.38017295899772,25.439072499997565,25.439072499997565,25.439072499997565,25.439072499997565,25.49972354199781,25.49972354199781,,,638027,001,2023-03-18_09h52.07.212,simple VEP,2022.2.4,None,
113,0,113,0,,,,,25.49972354199781,25.49972354199781,25.56384129199796,25.56384129199796,25.56384129199796,25.56384129199796,25.629807624998648,25.629807624998648,,,638027,001,2023-03-18_09h52.07.212,simple VEP,2022.2.4,None,
114,0,114,0,,,,,25.629807624998648,25.629807624998648,25.692741749997367,25.692741749997367,25.692741749997367,25.692741749997367,25.755037291997724,25.755037291997724,,,638027,001,2023-03-18_09h52.07.212,simple VEP,2022.2.4,None,
115,0,115,0,,,,,25.755037291997724,25.755037291997724,25.814116375000594,25.814116375000594,25.814116375000594,25.814116375000594,25.87311208399842,25.87311208399842,,,638027,001,2023-03-18_09h52.07.212,simple VEP,2022.2.4,None,
116,0,116,0,,,,,25.87311208399842,25.87311208399842,25.930860500000563,25.930860500000563,25.930860500000563,25.930860500000563,25.9967053750006,25.9967053750006,,,638027,001,2023-03-18_09h52.07.212,simple VEP,2022.2.4,None,
117,0,117,0,,,,,25.9967053750006,25.9967053750006,26.055720583997754,26.055720583997754,26.055720583997754,26.055720583997754,26.11568095899929,26.11568095899929,,,638027,001,2023-03-18_09h52.07.212,simple VEP,2022.2.4,None,
118,0,118,0,,,,,26.11568095899929,26.11568095899929,26.175721249997878,26.175721249997878,26.175721249997878,26.175721249997878,26.24027708399808,26.24027708399808,,,638027,001,2023-03-18_09h52.07.212,simple VEP,2022.2.4,None,
119,0,119,0,,,,,26.24027708399808,26.24027708399808,26.299103958997875,26.299103958997875,26.299103958997875,26.299103958997875,26.366424458999973,26.366424458999973,,,638027,001,2023-03-18_09h52.07.212,simple VEP,2022.2.4,None,
120,0,120,0,,,,,26.366424458999973,26.366424458999973,26.430769416998373,26.430769416998373,26.430769416998373,26.430769416998373,26.49730649999765,26.49730649999765,,,638027,001,2023-03-18_09h52.07.212,simple VEP,2022.2.4,None,
121,0,121,0,,,,,26.49730649999765,26.49730649999765,26.56521129199973,26.56521129199973,26.56521129199973,26.56521129199973,26.63088316699941,26.63088316699941,,,638027,001,2023-03-18_09h52.07.212,simple VEP,2022.2.4,None,
122,0,122,0,,,,,26.63088316699941,26.63088316699941,26.689094083998498,26.689094083998498,26.689094083998498,26.689094083998498,26.748918624998623,26.748918624998623,,,638027,001,2023-03-18_09h52.07.212,simple VEP,2022.2.4,None,
123,0,123,0,,,,,26.748918624998623,26.748918624998623,26.814133500000025,26.814133500000025,26.814133500000025,26.814133500000025,26.872517959000106,26.872517959000106,,,638027,001,2023-03-18_09h52.07.212,simple VEP,2022.2.4,None,
124,0,124,0,,,,,26.872517959000106,26.872517959000106,26.930711499997415,26.930711499997415,26.930711499997415,26.930711499997415,27.00220866699965,27.00220866699965,,,638027,001,2023-03-18_09h52.07.212,simple VEP,2022.2.4,None,
125,0,125,0,,,,,27.00220866699965,27.00220866699965,27.06494954200025,27.06494954200025,27.06494954200025,27.06494954200025,27.132132416998502,27.132132416998502,,,638027,001,2023-03-18_09h52.07.212,simple VEP,2022.2.4,None,
126,0,126,0,,,,,27.132132416998502,27.132132416998502,27.188349666997965,27.188349666997965,27.188349666997965,27.188349666997965,27.247610958998848,27.247610958998848,,,638027,001,2023-03-18_09h52.07.212,simple VEP,2022.2.4,None,
127,0,127,0,,,,,27.247610958998848,27.247610958998848,27.305991875000473,27.305991875000473,27.305991875000473,27.305991875000473,27.36346133400002,27.36346133400002,,,638027,001,2023-03-18_09h52.07.212,simple VEP,2022.2.4,None,
128,0,128,0,,,,,27.36346133400002,27.36346133400002,27.423102083997946,27.423102083997946,27.423102083997946,27.423102083997946,27.48841845899733,27.48841845899733,,,638027,001,2023-03-18_09h52.07.212,simple VEP,2022.2.4,None,
129,0,129,0,,,,,27.48841845899733,27.48841845899733,27.547295624997787,27.547295624997787,27.547295624997787,27.547295624997787,27.60614595899824,27.60614595899824,,,638027,001,2023-03-18_09h52.07.212,simple VEP,2022.2.4,None,
130,0,130,0,,,,,27.60614595899824,27.60614595899824,27.66830950000076,27.66830950000076,27.66830950000076,27.66830950000076,27.732745875000546,27.732745875000546,,,638027,001,2023-03-18_09h52.07.212,simple VEP,2022.2.4,None,
131,0,131,0,,,,,27.732745875000546,27.732745875000546,27.79767916700075,27.79767916700075,27.79767916700075,27.79767916700075,27.869392000000516,27.869392000000516,,,638027,001,2023-03-18_09h52.07.212,simple VEP,2022.2.4,None,
132,0,132,0,,,,,27.869392000000516,27.869392000000516,27.93119987499813,27.93119987499813,27.93119987499813,27.93119987499813,27.989843041999848,27.989843041999848,,,638027,001,2023-03-18_09h52.07.212,simple VEP,2022.2.4,None,
133,0,133,0,,,,,27.989843041999848,27.989843041999848,28.048416999998153,28.048416999998153,28.048416999998153,28.048416999998153,28.108950709000055,28.108950709000055,,,638027,001,2023-03-18_09h52.07.212,simple VEP,2022.2.4,None,
134,0,134,0,,,,,28.108950709000055,28.108950709000055,28.17259537499922,28.17259537499922,28.17259537499922,28.17259537499922,28.23145833399758,28.23145833399758,,,638027,001,2023-03-18_09h52.07.212,simple VEP,2022.2.4,None,
135,0,135,0,,,,,28.23145833399758,28.23145833399758,28.28955162499915,28.28955162499915,28.28955162499915,28.28955162499915,28.348421916998632,28.348421916998632,,,638027,001,2023-03-18_09h52.07.212,simple VEP,2022.2.4,None,
136,0,136,0,,,,,28.348421916998632,28.348421916998632,28.41392937499768,28.41392937499768,28.41392937499768,28.41392937499768,28.473625167000137,28.473625167000137,,,638027,001,2023-03-18_09h52.07.212,simple VEP,2022.2.4,None,
137,0,137,0,,,,,28.473625167000137,28.473625167000137,28.53993095899932,28.53993095899932,28.53993095899932,28.53993095899932,28.597037958999863,28.597037958999863,,,638027,001,2023-03-18_09h52.07.212,simple VEP,2022.2.4,None,
138,0,138,0,,,,,28.597037958999863,28.597037958999863,28.657200375000684,28.657200375000684,28.657200375000684,28.657200375000684,28.722980083999573,28.722980083999573,,,638027,001,2023-03-18_09h52.07.212,simple VEP,2022.2.4,None,
139,0,139,0,,,,,28.722980083999573,28.722980083999573,28.780155459000525,28.780155459000525,28.780155459000525,28.780155459000525,28.839354916999582,28.839354916999582,,,638027,001,2023-03-18_09h52.07.212,simple VEP,2022.2.4,None,
140,0,140,0,,,,,28.839354916999582,28.839354916999582,28.897996708998107,28.897996708998107,28.897996708998107,28.897996708998107,28.96683533399846,28.96683533399846,,,638027,001,2023-03-18_09h52.07.212,simple VEP,2022.2.4,None,
141,0,141,0,,,,,28.96683533399846,28.96683533399846,29.039460791998863,29.039460791998863,29.039460791998863,29.039460791998863,29.09699854199789,29.09699854199789,,,638027,001,2023-03-18_09h52.07.212,simple VEP,2022.2.4,None,
142,0,142,0,,,,,29.09699854199789,29.09699854199789,29.156102708999242,29.156102708999242,29.156102708999242,29.156102708999242,29.220060999999987,29.220060999999987,,,638027,001,2023-03-18_09h52.07.212,simple VEP,2022.2.4,None,
143,0,143,0,,,,,29.220060999999987,29.220060999999987,29.280724042000656,29.280724042000656,29.280724042000656,29.280724042000656,29.33933079199778,29.33933079199778,,,638027,001,2023-03-18_09h52.07.212,simple VEP,2022.2.4,None,
144,0,144,0,,,,,29.33933079199778,29.33933079199778,29.397101499998826,29.397101499998826,29.397101499998826,29.397101499998826,29.45717108399913,29.45717108399913,,,638027,001,2023-03-18_09h52.07.212,simple VEP,2022.2.4,None,
145,0,145,0,,,,,29.45717108399913,29.45717108399913,29.5225118749986,29.5225118749986,29.5225118749986,29.5225118749986,29.581358499999624,29.581358499999624,,,638027,001,2023-03-18_09h52.07.212,simple VEP,2022.2.4,None,
146,0,146,0,,,,,29.581358499999624,29.581358499999624,29.648161083998275,29.648161083998275,29.648161083998275,29.648161083998275,29.71557112499795,29.71557112499795,,,638027,001,2023-03-18_09h52.07.212,simple VEP,2022.2.4,None,
147,0,147,0,,,,,29.71557112499795,29.71557112499795,29.78115808399889,29.78115808399889,29.78115808399889,29.78115808399889,29.839838624997356,29.839838624997356,,,638027,001,2023-03-18_09h52.07.212,simple VEP,2022.2.4,None,
148,0,148,0,,,,,29.839838624997356,29.839838624997356,29.898585041999468,29.898585041999468,29.898585041999468,29.898585041999468,29.966009042000223,29.966009042000223,,,638027,001,2023-03-18_09h52.07.212,simple VEP,2022.2.4,None,
149,0,149,0,,,,,29.966009042000223,29.966009042000223,30.030655750000733,30.030655750000733,30.030655750000733,30.030655750000733,30.091485583998292,30.091485583998292,,,638027,001,2023-03-18_09h52.07.212,simple VEP,2022.2.4,None,
,,,,0,0,0,0,,,,,,,,,30.091485583998292,30.15624625000055,638027,001,2023-03-18_09h52.07.212,simple VEP,2022.2.4,None,
,,,,1,0,1,0,,,,,,,,,30.15624625000055,30.214502833998267,638027,001,2023-03-18_09h52.07.212,simple VEP,2022.2.4,None,
,,,,2,0,2,0,,,,,,,,,30.214502833998267,30.281600791997334,638027,001,2023-03-18_09h52.07.212,simple VEP,2022.2.4,None,
,,,,3,0,3,0,,,,,,,,,30.281600791997334,30.34911045899935,638027,001,2023-03-18_09h52.07.212,simple VEP,2022.2.4,None,
,,,,4,0,4,0,,,,,,,,,30.34911045899935,30.414354833999823,638027,001,2023-03-18_09h52.07.212,simple VEP,2022.2.4,None,
,,,,5,0,5,0,,,,,,,,,30.414354833999823,30.481145624999044,638027,001,2023-03-18_09h52.07.212,simple VEP,2022.2.4,None,
,,,,6,0,6,0,,,,,,,,,30.481145624999044,30.53991758399934,638027,001,2023-03-18_09h52.07.212,simple VEP,2022.2.4,None,
,,,,7,0,7,0,,,,,,,,,30.53991758399934,30.598409624999476,638027,001,2023-03-18_09h52.07.212,simple VEP,2022.2.4,None,
,,,,8,0,8,0,,,,,,,,,30.598409624999476,30.66436695899756,638027,001,2023-03-18_09h52.07.212,simple VEP,2022.2.4,None,
,,,,9,0,9,0,,,,,,,,,30.66436695899756,30.73151333399801,638027,001,2023-03-18_09h52.07.212,simple VEP,2022.2.4,None,
,,,,10,0,10,0,,,,,,,,,30.73151333399801,30.798414333999972,638027,001,2023-03-18_09h52.07.212,simple VEP,2022.2.4,None,
,,,,11,0,11,0,,,,,,,,,30.798414333999972,30.862657541998487,638027,001,2023-03-18_09h52.07.212,simple VEP,2022.2.4,None,
,,,,12,0,12,0,,,,,,,,,30.862657541998487,30.922622958998545,638027,001,2023-03-18_09h52.07.212,simple VEP,2022.2.4,None,
,,,,13,0,13,0,,,,,,,,,30.922622958998545,30.98090183399836,638027,001,2023-03-18_09h52.07.212,simple VEP,2022.2.4,None,
,,,,14,0,14,0,,,,,,,,,30.98090183399836,31.048445166998135,638027,001,2023-03-18_09h52.07.212,simple VEP,2022.2.4,None,
,,,,15,0,15,0,,,,,,,,,31.048445166998135,31.1143818749988,638027,001,2023-03-18_09h52.07.212,simple VEP,2022.2.4,None,
,,,,16,0,16,0,,,,,,,,,31.1143818749988,31.18106629199974,638027,001,2023-03-18_09h52.07.212,simple VEP,2022.2.4,None,
,,,,17,0,17,0,,,,,,,,,31.18106629199974,31.24979283399807,638027,001,2023-03-18_09h52.07.212,simple VEP,2022.2.4,None,
,,,,18,0,18,0,,,,,,,,,31.24979283399807,31.314417708999827,638027,001,2023-03-18_09h52.07.212,simple VEP,2022.2.4,None,
,,,,19,0,19,0,,,,,,,,,31.314417708999827,31.381114749998233,638027,001,2023-03-18_09h52.07.212,simple VEP,2022.2.4,None,
,,,,20,0,20,0,,,,,,,,,31.381114749998233,31.448411958997895,638027,001,2023-03-18_09h52.07.212,simple VEP,2022.2.4,None,
,,,,21,0,21,0,,,,,,,,,31.448411958997895,31.514999167000497,638027,001,2023-03-18_09h52.07.212,simple VEP,2022.2.4,None,
,,,,22,0,22,0,,,,,,,,,31.514999167000497,31.581613250000373,638027,001,2023-03-18_09h52.07.212,simple VEP,2022.2.4,None,
,,,,23,0,23,0,,,,,,,,,31.581613250000373,31.64964479199989,638027,001,2023-03-18_09h52.07.212,simple VEP,2022.2.4,None,
,,,,24,0,24,0,,,,,,,,,31.64964479199989,31.714957708998554,638027,001,2023-03-18_09h52.07.212,simple VEP,2022.2.4,None,
,,,,25,0,25,0,,,,,,,,,31.714957708998554,31.781751333997818,638027,001,2023-03-18_09h52.07.212,simple VEP,2022.2.4,None,
,,,,26,0,26,0,,,,,,,,,31.781751333997818,31.848093791999418,638027,001,2023-03-18_09h52.07.212,simple VEP,2022.2.4,None,
,,,,27,0,27,0,,,,,,,,,31.848093791999418,31.914149374999397,638027,001,2023-03-18_09h52.07.212,simple VEP,2022.2.4,None,
,,,,28,0,28,0,,,,,,,,,31.914149374999397,31.981186334000085,638027,001,2023-03-18_09h52.07.212,simple VEP,2022.2.4,None,
,,,,29,0,29,0,,,,,,,,,31.981186334000085,32.04903033399751,638027,001,2023-03-18_09h52.07.212,simple VEP,2022.2.4,None,
,,,,30,0,30,0,,,,,,,,,32.04903033399751,32.1142297089973,638027,001,2023-03-18_09h52.07.212,simple VEP,2022.2.4,None,
,,,,31,0,31,0,,,,,,,,,32.1142297089973,32.17342174999794,638027,001,2023-03-18_09h52.07.212,simple VEP,2022.2.4,None,
,,,,32,0,32,0,,,,,,,,,32.17342174999794,32.23023783399913,638027,001,2023-03-18_09h52.07.212,simple VEP,2022.2.4,None,
,,,,33,0,33,0,,,,,,,,,32.23023783399913,32.29599570899882,638027,001,2023-03-18_09h52.07.212,simple VEP,2022.2.4,None,
,,,,34,0,34,0,,,,,,,,,32.29599570899882,32.356115416998364,638027,001,2023-03-18_09h52.07.212,simple VEP,2022.2.4,None,
,,,,35,0,35,0,,,,,,,,,32.356115416998364,32.416890083997714,638027,001,2023-03-18_09h52.07.212,simple VEP,2022.2.4,None,
,,,,36,0,36,0,,,,,,,,,32.416890083997714,32.48162550000052,638027,001,2023-03-18_09h52.07.212,simple VEP,2022.2.4,None,
,,,,37,0,37,0,,,,,,,,,32.48162550000052,32.548805958998855,638027,001,2023-03-18_09h52.07.212,simple VEP,2022.2.4,None,
,,,,38,0,38,0,,,,,,,,,32.548805958998855,32.61610129199835,638027,001,2023-03-18_09h52.07.212,simple VEP,2022.2.4,None,
,,,,39,0,39,0,,,,,,,,,32.61610129199835,32.681103291997715,638027,001,2023-03-18_09h52.07.212,simple VEP,2022.2.4,None,
,,,,40,0,40,0,,,,,,,,,32.681103291997715,32.78891041699899,638027,001,2023-03-18_09h52.07.212,simple VEP,2022.2.4,None,
,,,,41,0,41,0,,,,,,,,,32.78891041699899,32.850674499997695,638027,001,2023-03-18_09h52.07.212,simple VEP,2022.2.4,None,
,,,,42,0,42,0,,,,,,,,,32.850674499997695,32.91471245899811,638027,001,2023-03-18_09h52.07.212,simple VEP,2022.2.4,None,
,,,,43,0,43,0,,,,,,,,,32.91471245899811,32.982106458999624,638027,001,2023-03-18_09h52.07.212,simple VEP,2022.2.4,None,
,,,,44,0,44,0,,,,,,,,,32.982106458999624,33.049978833998466,638027,001,2023-03-18_09h52.07.212,simple VEP,2022.2.4,None,
,,,,45,0,45,0,,,,,,,,,33.049978833998466,33.11538350000046,638027,001,2023-03-18_09h52.07.212,simple VEP,2022.2.4,None,
,,,,46,0,46,0,,,,,,,,,33.11538350000046,33.18211737499951,638027,001,2023-03-18_09h52.07.212,simple VEP,2022.2.4,None,
,,,,47,0,47,0,,,,,,,,,33.18211737499951,33.24800908399993,638027,001,2023-03-18_09h52.07.212,simple VEP,2022.2.4,None,
,,,,48,0,48,0,,,,,,,,,33.24800908399993,33.314582291997795,638027,001,2023-03-18_09h52.07.212,simple VEP,2022.2.4,None,
,,,,49,0,49,0,,,,,,,,,33.314582291997795,33.37273354200079,638027,001,2023-03-18_09h52.07.212,simple VEP,2022.2.4,None,
,,,,50,0,50,0,,,,,,,,,33.37273354200079,33.43077554199772,638027,001,2023-03-18_09h52.07.212,simple VEP,2022.2.4,None,
,,,,51,0,51,0,,,,,,,,,33.43077554199772,33.49582283400014,638027,001,2023-03-18_09h52.07.212,simple VEP,2022.2.4,None,
,,,,52,0,52,0,,,,,,,,,33.49582283400014,33.55638454200016,638027,001,2023-03-18_09h52.07.212,simple VEP,2022.2.4,None,
,,,,53,0,53,0,,,,,,,,,33.55638454200016,33.61543045899816,638027,001,2023-03-18_09h52.07.212,simple VEP,2022.2.4,None,
,,,,54,0,54,0,,,,,,,,,33.61543045899816,33.681713374997344,638027,001,2023-03-18_09h52.07.212,simple VEP,2022.2.4,None,
,,,,55,0,55,0,,,,,,,,,33.681713374997344,33.74749662499744,638027,001,2023-03-18_09h52.07.212,simple VEP,2022.2.4,None,
,,,,56,0,56,0,,,,,,,,,33.74749662499744,33.81678199999806,638027,001,2023-03-18_09h52.07.212,simple VEP,2022.2.4,None,
,,,,57,0,57,0,,,,,,,,,33.81678199999806,33.88105524999992,638027,001,2023-03-18_09h52.07.212,simple VEP,2022.2.4,None,
,,,,58,0,58,0,,,,,,,,,33.88105524999992,33.948132749999786,638027,001,2023-03-18_09h52.07.212,simple VEP,2022.2.4,None,
,,,,59,0,59,0,,,,,,,,,33.948132749999786,34.0160880839976,638027,001,2023-03-18_09h52.07.212,simple VEP,2022.2.4,None,
,,,,60,0,60,0,,,,,,,,,34.0160880839976,34.080940874999214,638027,001,2023-03-18_09h52.07.212,simple VEP,2022.2.4,None,
,,,,61,0,61,0,,,,,,,,,34.080940874999214,34.146798750000016,638027,001,2023-03-18_09h52.07.212,simple VEP,2022.2.4,None,
,,,,62,0,62,0,,,,,,,,,34.146798750000016,34.20630104199881,638027,001,2023-03-18_09h52.07.212,simple VEP,2022.2.4,None,
,,,,63,0,63,0,,,,,,,,,34.20630104199881,34.26747870899999,638027,001,2023-03-18_09h52.07.212,simple VEP,2022.2.4,None,
,,,,64,0,64,0,,,,,,,,,34.26747870899999,34.33077362499898,638027,001,2023-03-18_09h52.07.212,simple VEP,2022.2.4,None,
,,,,65,0,65,0,,,,,,,,,34.33077362499898,34.399109916997986,638027,001,2023-03-18_09h52.07.212,simple VEP,2022.2.4,None,
,,,,66,0,66,0,,,,,,,,,34.399109916997986,34.465512916998705,638027,001,2023-03-18_09h52.07.212,simple VEP,2022.2.4,None,
,,,,67,0,67,0,,,,,,,,,34.465512916998705,34.53027058400039,638027,001,2023-03-18_09h52.07.212,simple VEP,2022.2.4,None,
,,,,68,0,68,0,,,,,,,,,34.53027058400039,34.58904016700035,638027,001,2023-03-18_09h52.07.212,simple VEP,2022.2.4,None,
,,,,69,0,69,0,,,,,,,,,34.58904016700035,34.64765274999809,638027,001,2023-03-18_09h52.07.212,simple VEP,2022.2.4,None,
,,,,70,0,70,0,,,,,,,,,34.64765274999809,34.722194499998295,638027,001,2023-03-18_09h52.07.212,simple VEP,2022.2.4,None,
,,,,71,0,71,0,,,,,,,,,34.722194499998295,34.78165041700049,638027,001,2023-03-18_09h52.07.212,simple VEP,2022.2.4,None,
,,,,72,0,72,0,,,,,,,,,34.78165041700049,34.84836079199886,638027,001,2023-03-18_09h52.07.212,simple VEP,2022.2.4,None,
,,,,73,0,73,0,,,,,,,,,34.84836079199886,34.916432792000705,638027,001,2023-03-18_09h52.07.212,simple VEP,2022.2.4,None,
,,,,74,0,74,0,,,,,,,,,34.916432792000705,34.981131749998895,638027,001,2023-03-18_09h52.07.212,simple VEP,2022.2.4,None,
,,,,75,0,75,0,,,,,,,,,34.981131749998895,35.04816995899819,638027,001,2023-03-18_09h52.07.212,simple VEP,2022.2.4,None,
,,,,76,0,76,0,,,,,,,,,35.04816995899819,35.114630791998934,638027,001,2023-03-18_09h52.07.212,simple VEP,2022.2.4,None,
,,,,77,0,77,0,,,,,,,,,35.114630791998934,35.189485958999285,638027,001,2023-03-18_09h52.07.212,simple VEP,2022.2.4,None,
,,,,78,0,78,0,,,,,,,,,35.189485958999285,35.2478513749993,638027,001,2023-03-18_09h52.07.212,simple VEP,2022.2.4,None,
,,,,79,0,79,0,,,,,,,,,35.2478513749993,35.31459520899807,638027,001,2023-03-18_09h52.07.212,simple VEP,2022.2.4,None,
,,,,80,0,80,0,,,,,,,,,35.31459520899807,35.3733025420006,638027,001,2023-03-18_09h52.07.212,simple VEP,2022.2.4,None,
,,,,81,0,81,0,,,,,,,,,35.3733025420006,35.431819416997314,638027,001,2023-03-18_09h52.07.212,simple VEP,2022.2.4,None,
,,,,82,0,82,0,,,,,,,,,35.431819416997314,35.495493124999484,638027,001,2023-03-18_09h52.07.212,simple VEP,2022.2.4,None,
,,,,83,0,83,0,,,,,,,,,35.495493124999484,35.55609158399966,638027,001,2023-03-18_09h52.07.212,simple VEP,2022.2.4,None,
,,,,84,0,84,0,,,,,,,,,35.55609158399966,35.615297708998696,638027,001,2023-03-18_09h52.07.212,simple VEP,2022.2.4,None,
,,,,85,0,85,0,,,,,,,,,35.615297708998696,35.681649333997484,638027,001,2023-03-18_09h52.07.212,simple VEP,2022.2.4,None,
,,,,86,0,86,0,,,,,,,,,35.681649333997484,35.74892629199894,638027,001,2023-03-18_09h52.07.212,simple VEP,2022.2.4,None,
,,,,87,0,87,0,,,,,,,,,35.74892629199894,35.81492079199961,638027,001,2023-03-18_09h52.07.212,simple VEP,2022.2.4,None,
,,,,88,0,88,0,,,,,,,,,35.81492079199961,35.880040874999395,638027,001,2023-03-18_09h52.07.212,simple VEP,2022.2.4,None,
,,,,89,0,89,0,,,,,,,,,35.880040874999395,35.93940383399968,638027,001,2023-03-18_09h52.07.212,simple VEP,2022.2.4,None,
,,,,90,0,90,0,,,,,,,,,35.93940383399968,35.99828037499901,638027,001,2023-03-18_09h52.07.212,simple VEP,2022.2.4,None,
,,,,91,0,91,0,,,,,,,,,35.99828037499901,36.05949616699945,638027,001,2023-03-18_09h52.07.212,simple VEP,2022.2.4,None,
,,,,92,0,92,0,,,,,,,,,36.05949616699945,36.122530124997866,638027,001,2023-03-18_09h52.07.212,simple VEP,2022.2.4,None,
,,,,93,0,93,0,,,,,,,,,36.122530124997866,36.1814979999981,638027,001,2023-03-18_09h52.07.212,simple VEP,2022.2.4,None,
,,,,94,0,94,0,,,,,,,,,36.1814979999981,36.24819112499972,638027,001,2023-03-18_09h52.07.212,simple VEP,2022.2.4,None,
,,,,95,0,95,0,,,,,,,,,36.24819112499972,36.306219958998554,638027,001,2023-03-18_09h52.07.212,simple VEP,2022.2.4,None,
,,,,96,0,96,0,,,,,,,,,36.306219958998554,36.36439849999806,638027,001,2023-03-18_09h52.07.212,simple VEP,2022.2.4,None,
,,,,97,0,97,0,,,,,,,,,36.36439849999806,36.43131537499721,638027,001,2023-03-18_09h52.07.212,simple VEP,2022.2.4,None,
,,,,98,0,98,0,,,,,,,,,36.43131537499721,36.4985869589982,638027,001,2023-03-18_09h52.07.212,simple VEP,2022.2.4,None,
,,,,99,0,99,0,,,,,,,,,36.4985869589982,36.5647715419982,638027,001,2023-03-18_09h52.07.212,simple VEP,2022.2.4,None,
,,,,100,0,100,0,,,,,,,,,36.5647715419982,36.63141312500011,638027,001,2023-03-18_09h52.07.212,simple VEP,2022.2.4,None,
,,,,101,0,101,0,,,,,,,,,36.63141312500011,36.689860874997976,638027,001,2023-03-18_09h52.07.212,simple VEP,2022.2.4,None,
,,,,102,0,102,0,,,,,,,,,36.689860874997976,36.749397749998025,638027,001,2023-03-18_09h52.07.212,simple VEP,2022.2.4,None,
,,,,103,0,103,0,,,,,,,,,36.749397749998025,36.822590291998495,638027,001,2023-03-18_09h52.07.212,simple VEP,2022.2.4,None,
,,,,104,0,104,0,,,,,,,,,36.822590291998495,36.8808257089986,638027,001,2023-03-18_09h52.07.212,simple VEP,2022.2.4,None,
,,,,105,0,105,0,,,,,,,,,36.8808257089986,36.94406287499805,638027,001,2023-03-18_09h52.07.212,simple VEP,2022.2.4,None,
,,,,106,0,106,0,,,,,,,,,36.94406287499805,37.00641112499943,638027,001,2023-03-18_09h52.07.212,simple VEP,2022.2.4,None,
,,,,107,0,107,0,,,,,,,,,37.00641112499943,37.064400084000226,638027,001,2023-03-18_09h52.07.212,simple VEP,2022.2.4,None,
,,,,108,0,108,0,,,,,,,,,37.064400084000226,37.13239829200029,638027,001,2023-03-18_09h52.07.212,simple VEP,2022.2.4,None,
,,,,109,0,109,0,,,,,,,,,37.13239829200029,37.198068624998996,638027,001,2023-03-18_09h52.07.212,simple VEP,2022.2.4,None,
,,,,110,0,110,0,,,,,,,,,37.198068624998996,37.26503624999896,638027,001,2023-03-18_09h52.07.212,simple VEP,2022.2.4,None,
,,,,111,0,111,0,,,,,,,,,37.26503624999896,37.33211145899986,638027,001,2023-03-18_09h52.07.212,simple VEP,2022.2.4,None,
,,,,112,0,112,0,,,,,,,,,37.33211145899986,37.397189916999196,638027,001,2023-03-18_09h52.07.212,simple VEP,2022.2.4,None,
,,,,113,0,113,0,,,,,,,,,37.397189916999196,37.45505095899716,638027,001,2023-03-18_09h52.07.212,simple VEP,2022.2.4,None,
,,,,114,0,114,0,,,,,,,,,37.45505095899716,37.51573387499957,638027,001,2023-03-18_09h52.07.212,simple VEP,2022.2.4,None,
,,,,115,0,115,0,,,,,,,,,37.51573387499957,37.58310966699719,638027,001,2023-03-18_09h52.07.212,simple VEP,2022.2.4,None,
,,,,116,0,116,0,,,,,,,,,37.58310966699719,37.649359625000216,638027,001,2023-03-18_09h52.07.212,simple VEP,2022.2.4,None,
,,,,117,0,117,0,,,,,,,,,37.649359625000216,37.714191958999436,638027,001,2023-03-18_09h52.07.212,simple VEP,2022.2.4,None,
,,,,118,0,118,0,,,,,,,,,37.714191958999436,37.78091579199827,638027,001,2023-03-18_09h52.07.212,simple VEP,2022.2.4,None,
,,,,119,0,119,0,,,,,,,,,37.78091579199827,37.83911379200072,638027,001,2023-03-18_09h52.07.212,simple VEP,2022.2.4,None,
,,,,120,0,120,0,,,,,,,,,37.83911379200072,37.89768700000059,638027,001,2023-03-18_09h52.07.212,simple VEP,2022.2.4,None,
,,,,121,0,121,0,,,,,,,,,37.89768700000059,37.964385749997746,638027,001,2023-03-18_09h52.07.212,simple VEP,2022.2.4,None,
,,,,122,0,122,0,,,,,,,,,37.964385749997746,38.02266249999957,638027,001,2023-03-18_09h52.07.212,simple VEP,2022.2.4,None,
,,,,123,0,123,0,,,,,,,,,38.02266249999957,38.08365008399778,638027,001,2023-03-18_09h52.07.212,simple VEP,2022.2.4,None,
,,,,124,0,124,0,,,,,,,,,38.08365008399778,38.14765462499781,638027,001,2023-03-18_09h52.07.212,simple VEP,2022.2.4,None,
,,,,125,0,125,0,,,,,,,,,38.14765462499781,38.215043208998395,638027,001,2023-03-18_09h52.07.212,simple VEP,2022.2.4,None,
,,,,126,0,126,0,,,,,,,,,38.215043208998395,38.27824058400074,638027,001,2023-03-18_09h52.07.212,simple VEP,2022.2.4,None,
,,,,127,0,127,0,,,,,,,,,38.27824058400074,38.33873912499985,638027,001,2023-03-18_09h52.07.212,simple VEP,2022.2.4,None,
,,,,128,0,128,0,,,,,,,,,38.33873912499985,38.397260708999966,638027,001,2023-03-18_09h52.07.212,simple VEP,2022.2.4,None,
,,,,129,0,129,0,,,,,,,,,38.397260708999966,38.456138583998836,638027,001,2023-03-18_09h52.07.212,simple VEP,2022.2.4,None,
,,,,130,0,130,0,,,,,,,,,38.456138583998836,38.517117458999564,638027,001,2023-03-18_09h52.07.212,simple VEP,2022.2.4,None,
,,,,131,0,131,0,,,,,,,,,38.517117458999564,38.58132770899829,638027,001,2023-03-18_09h52.07.212,simple VEP,2022.2.4,None,
,,,,132,0,132,0,,,,,,,,,38.58132770899829,38.647862499998155,638027,001,2023-03-18_09h52.07.212,simple VEP,2022.2.4,None,
,,,,133,0,133,0,,,,,,,,,38.647862499998155,38.715428542000154,638027,001,2023-03-18_09h52.07.212,simple VEP,2022.2.4,None,
,,,,134,0,134,0,,,,,,,,,38.715428542000154,38.78122574999725,638027,001,2023-03-18_09h52.07.212,simple VEP,2022.2.4,None,
,,,,135,0,135,0,,,,,,,,,38.78122574999725,38.848356209000485,638027,001,2023-03-18_09h52.07.212,simple VEP,2022.2.4,None,
,,,,136,0,136,0,,,,,,,,,38.848356209000485,38.91629337499762,638027,001,2023-03-18_09h52.07.212,simple VEP,2022.2.4,None,
,,,,137,0,137,0,,,,,,,,,38.91629337499762,38.98150291699858,638027,001,2023-03-18_09h52.07.212,simple VEP,2022.2.4,None,
,,,,138,0,138,0,,,,,,,,,38.98150291699858,39.04877750000014,638027,001,2023-03-18_09h52.07.212,simple VEP,2022.2.4,None,
,,,,139,0,139,0,,,,,,,,,39.04877750000014,39.1140251249999,638027,001,2023-03-18_09h52.07.212,simple VEP,2022.2.4,None,
,,,,140,0,140,0,,,,,,,,,39.1140251249999,39.18119549999756,638027,001,2023-03-18_09h52.07.212,simple VEP,2022.2.4,None,
,,,,141,0,141,0,,,,,,,,,39.18119549999756,39.247718750000786,638027,001,2023-03-18_09h52.07.212,simple VEP,2022.2.4,None,
,,,,142,0,142,0,,,,,,,,,39.247718750000786,39.31515533399943,638027,001,2023-03-18_09h52.07.212,simple VEP,2022.2.4,None,
,,,,143,0,143,0,,,,,,,,,39.31515533399943,39.38326770899948,638027,001,2023-03-18_09h52.07.212,simple VEP,2022.2.4,None,
,,,,144,0,144,0,,,,,,,,,39.38326770899948,39.4477874999975,638027,001,2023-03-18_09h52.07.212,simple VEP,2022.2.4,None,
,,,,145,0,145,0,,,,,,,,,39.4477874999975,39.514253416997235,638027,001,2023-03-18_09h52.07.212,simple VEP,2022.2.4,None,
,,,,146,0,146,0,,,,,,,,,39.514253416997235,39.58057600000029,638027,001,2023-03-18_09h52.07.212,simple VEP,2022.2.4,None,
,,,,147,0,147,0,,,,,,,,,39.58057600000029,39.64896066700021,638027,001,2023-03-18_09h52.07.212,simple VEP,2022.2.4,None,
,,,,148,0,148,0,,,,,,,,,39.64896066700021,39.71289799999795,638027,001,2023-03-18_09h52.07.212,simple VEP,2022.2.4,None,
,,,,149,0,149,0,,,,,,,,,39.71289799999795,39.771811583999806,638027,001,2023-03-18_09h52.07.212,simple VEP,2022.2.4,None,
,,,,150,0,150,0,,,,,,,,,39.771811583999806,39.8323265839972,638027,001,2023-03-18_09h52.07.212,simple VEP,2022.2.4,None,
,,,,151,0,151,0,,,,,,,,,39.8323265839972,39.89860666700042,638027,001,2023-03-18_09h52.07.212,simple VEP,2022.2.4,None,
,,,,152,0,152,0,,,,,,,,,39.89860666700042,39.964948708999145,638027,001,2023-03-18_09h52.07.212,simple VEP,2022.2.4,None,
,,,,153,0,153,0,,,,,,,,,39.964948708999145,40.03144874999998,638027,001,2023-03-18_09h52.07.212,simple VEP,2022.2.4,None,
,,,,154,0,154,0,,,,,,,,,40.03144874999998,40.09027145899745,638027,001,2023-03-18_09h52.07.212,simple VEP,2022.2.4,None,
,,,,155,0,155,0,,,,,,,,,40.09027145899745,40.14775799999916,638027,001,2023-03-18_09h52.07.212,simple VEP,2022.2.4,None,
,,,,156,0,156,0,,,,,,,,,40.14775799999916,40.21540858399749,638027,001,2023-03-18_09h52.07.212,simple VEP,2022.2.4,None,
,,,,157,0,157,0,,,,,,,,,40.21540858399749,40.281835583999055,638027,001,2023-03-18_09h52.07.212,simple VEP,2022.2.4,None,
,,,,158,0,158,0,,,,,,,,,40.281835583999055,40.347454209000716,638027,001,2023-03-18_09h52.07.212,simple VEP,2022.2.4,None,
,,,,159,0,159,0,,,,,,,,,40.347454209000716,40.414187124999444,638027,001,2023-03-18_09h52.07.212,simple VEP,2022.2.4,None,
,,,,160,0,160,0,,,,,,,,,40.414187124999444,40.480672166999284,638027,001,2023-03-18_09h52.07.212,simple VEP,2022.2.4,None,
,,,,161,0,161,0,,,,,,,,,40.480672166999284,40.54733920899889,638027,001,2023-03-18_09h52.07.212,simple VEP,2022.2.4,None,
,,,,162,0,162,0,,,,,,,,,40.54733920899889,40.60610370900031,638027,001,2023-03-18_09h52.07.212,simple VEP,2022.2.4,None,
,,,,163,0,163,0,,,,,,,,,40.60610370900031,40.66518187499969,638027,001,2023-03-18_09h52.07.212,simple VEP,2022.2.4,None,
,,,,164,0,164,0,,,,,,,,,40.66518187499969,40.7313772919988,638027,001,2023-03-18_09h52.07.212,simple VEP,2022.2.4,None,
,,,,165,0,165,0,,,,,,,,,40.7313772919988,40.79817179199745,638027,001,2023-03-18_09h52.07.212,simple VEP,2022.2.4,None,
,,,,166,0,166,0,,,,,,,,,40.79817179199745,40.86421283399977,638027,001,2023-03-18_09h52.07.212,simple VEP,2022.2.4,None,
,,,,167,0,167,0,,,,,,,,,40.86421283399977,40.93071833399881,638027,001,2023-03-18_09h52.07.212,simple VEP,2022.2.4,None,
,,,,168,0,168,0,,,,,,,,,40.93071833399881,40.989368833998014,638027,001,2023-03-18_09h52.07.212,simple VEP,2022.2.4,None,
,,,,169,0,169,0,,,,,,,,,40.989368833998014,41.048163166997256,638027,001,2023-03-18_09h52.07.212,simple VEP,2022.2.4,None,
,,,,170,0,170,0,,,,,,,,,41.048163166997256,41.114632624998194,638027,001,2023-03-18_09h52.07.212,simple VEP,2022.2.4,None,
,,,,171,0,171,0,,,,,,,,,41.114632624998194,41.173017417000665,638027,001,2023-03-18_09h52.07.212,simple VEP,2022.2.4,None,
,,,,172,0,172,0,,,,,,,,,41.173017417000665,41.23271812500025,638027,001,2023-03-18_09h52.07.212,simple VEP,2022.2.4,None,
,,,,173,0,173,0,,,,,,,,,41.23271812500025,41.29753591699773,638027,001,2023-03-18_09h52.07.212,simple VEP,2022.2.4,None,
,,,,174,0,174,0,,,,,,,,,41.29753591699773,41.36438816699956,638027,001,2023-03-18_09h52.07.212,simple VEP,2022.2.4,None,
,,,,175,0,175,0,,,,,,,,,41.36438816699956,41.42357970900048,638027,001,2023-03-18_09h52.07.212,simple VEP,2022.2.4,None,
,,,,176,0,176,0,,,,,,,,,41.42357970900048,41.48207620899848,638027,001,2023-03-18_09h52.07.212,simple VEP,2022.2.4,None,
,,,,177,0,177,0,,,,,,,,,41.48207620899848,41.54637691699827,638027,001,2023-03-18_09h52.07.212,simple VEP,2022.2.4,None,
,,,,178,0,178,0,,,,,,,,,41.54637691699827,41.60581212499892,638027,001,2023-03-18_09h52.07.212,simple VEP,2022.2.4,None,
,,,,179,0,179,0,,,,,,,,,41.60581212499892,41.6664981670001,638027,001,2023-03-18_09h52.07.212,simple VEP,2022.2.4,None,
,,,,180,0,180,0,,,,,,,,,41.6664981670001,41.73069000000032,638027,001,2023-03-18_09h52.07.212,simple VEP,2022.2.4,None,
,,,,181,0,181,0,,,,,,,,,41.73069000000032,41.79811945899928,638027,001,2023-03-18_09h52.07.212,simple VEP,2022.2.4,None,
,,,,182,0,182,0,,,,,,,,,41.79811945899928,41.86506579200068,638027,001,2023-03-18_09h52.07.212,simple VEP,2022.2.4,None,
,,,,183,0,183,0,,,,,,,,,41.86506579200068,41.93167062499924,638027,001,2023-03-18_09h52.07.212,simple VEP,2022.2.4,None,
,,,,184,0,184,0,,,,,,,,,41.93167062499924,41.99560816699886,638027,001,2023-03-18_09h52.07.212,simple VEP,2022.2.4,None,
,,,,185,0,185,0,,,,,,,,,41.99560816699886,42.05666558399753,638027,001,2023-03-18_09h52.07.212,simple VEP,2022.2.4,None,
,,,,186,0,186,0,,,,,,,,,42.05666558399753,42.114833291998366,638027,001,2023-03-18_09h52.07.212,simple VEP,2022.2.4,None,
,,,,187,0,187,0,,,,,,,,,42.114833291998366,42.18115937499897,638027,001,2023-03-18_09h52.07.212,simple VEP,2022.2.4,None,
,,,,188,0,188,0,,,,,,,,,42.18115937499897,42.2481388749984,638027,001,2023-03-18_09h52.07.212,simple VEP,2022.2.4,None,
,,,,189,0,189,0,,,,,,,,,42.2481388749984,42.31470824999997,638027,001,2023-03-18_09h52.07.212,simple VEP,2022.2.4,None,
,,,,190,0,190,0,,,,,,,,,42.31470824999997,42.38025091699819,638027,001,2023-03-18_09h52.07.212,simple VEP,2022.2.4,None,
,,,,191,0,191,0,,,,,,,,,42.38025091699819,42.43923237499985,638027,001,2023-03-18_09h52.07.212,simple VEP,2022.2.4,None,
,,,,192,0,192,0,,,,,,,,,42.43923237499985,42.49975554199773,638027,001,2023-03-18_09h52.07.212,simple VEP,2022.2.4,None,
,,,,193,0,193,0,,,,,,,,,42.49975554199773,42.56575229199734,638027,001,2023-03-18_09h52.07.212,simple VEP,2022.2.4,None,
,,,,194,0,194,0,,,,,,,,,42.56575229199734,42.63192904199968,638027,001,2023-03-18_09h52.07.212,simple VEP,2022.2.4,None,
,,,,195,0,195,0,,,,,,,,,42.63192904199968,42.697127291998186,638027,001,2023-03-18_09h52.07.212,simple VEP,2022.2.4,None,
,,,,196,0,196,0,,,,,,,,,42.697127291998186,42.76287699999739,638027,001,2023-03-18_09h52.07.212,simple VEP,2022.2.4,None,
,,,,197,0,197,0,,,,,,,,,42.76287699999739,42.83186687499983,638027,001,2023-03-18_09h52.07.212,simple VEP,2022.2.4,None,
,,,,198,0,198,0,,,,,,,,,42.83186687499983,42.89879012500023,638027,001,2023-03-18_09h52.07.212,simple VEP,2022.2.4,None,
,,,,199,0,199,0,,,,,,,,,42.89879012500023,42.965083208997385,638027,001,2023-03-18_09h52.07.212,simple VEP,2022.2.4,None,
,,,,200,0,200,0,,,,,,,,,42.965083208997385,43.03083433400025,638027,001,2023-03-18_09h52.07.212,simple VEP,2022.2.4,None,
,,,,201,0,201,0,,,,,,,,,43.03083433400025,43.09810845899847,638027,001,2023-03-18_09h52.07.212,simple VEP,2022.2.4,None,
,,,,202,0,202,0,,,,,,,,,43.09810845899847,43.165023499997915,638027,001,2023-03-18_09h52.07.212,simple VEP,2022.2.4,None,
,,,,203,0,203,0,,,,,,,,,43.165023499997915,43.231539249998605,638027,001,2023-03-18_09h52.07.212,simple VEP,2022.2.4,None,
,,,,204,0,204,0,,,,,,,,,43.231539249998605,43.2992715420005,638027,001,2023-03-18_09h52.07.212,simple VEP,2022.2.4,None,
,,,,205,0,205,0,,,,,,,,,43.2992715420005,43.364681249997375,638027,001,2023-03-18_09h52.07.212,simple VEP,2022.2.4,None,
,,,,206,0,206,0,,,,,,,,,43.364681249997375,43.42305724999824,638027,001,2023-03-18_09h52.07.212,simple VEP,2022.2.4,None,
,,,,207,0,207,0,,,,,,,,,43.42305724999824,43.48224062499867,638027,001,2023-03-18_09h52.07.212,simple VEP,2022.2.4,None,
,,,,208,0,208,0,,,,,,,,,43.48224062499867,43.54750408399923,638027,001,2023-03-18_09h52.07.212,simple VEP,2022.2.4,None,
,,,,209,0,209,0,,,,,,,,,43.54750408399923,43.60571495899785,638027,001,2023-03-18_09h52.07.212,simple VEP,2022.2.4,None,
,,,,210,0,210,0,,,,,,,,,43.60571495899785,43.66582266700061,638027,001,2023-03-18_09h52.07.212,simple VEP,2022.2.4,None,
,,,,211,0,211,0,,,,,,,,,43.66582266700061,43.732634708998376,638027,001,2023-03-18_09h52.07.212,simple VEP,2022.2.4,None,
,,,,212,0,212,0,,,,,,,,,43.732634708998376,43.79801316699741,638027,001,2023-03-18_09h52.07.212,simple VEP,2022.2.4,None,
,,,,213,0,213,0,,,,,,,,,43.79801316699741,43.85532070899717,638027,001,2023-03-18_09h52.07.212,simple VEP,2022.2.4,None,
,,,,214,0,214,0,,,,,,,,,43.85532070899717,43.91617699999915,638027,001,2023-03-18_09h52.07.212,simple VEP,2022.2.4,None,
,,,,215,0,215,0,,,,,,,,,43.91617699999915,43.980040291997284,638027,001,2023-03-18_09h52.07.212,simple VEP,2022.2.4,None,
,,,,216,0,216,0,,,,,,,,,43.980040291997284,44.0470917499988,638027,001,2023-03-18_09h52.07.212,simple VEP,2022.2.4,None,
,,,,217,0,217,0,,,,,,,,,44.0470917499988,44.1061254999986,638027,001,2023-03-18_09h52.07.212,simple VEP,2022.2.4,None,
,,,,218,0,218,0,,,,,,,,,44.1061254999986,44.16460679199736,638027,001,2023-03-18_09h52.07.212,simple VEP,2022.2.4,None,
,,,,219,0,219,0,,,,,,,,,44.16460679199736,44.2307168749976,638027,001,2023-03-18_09h52.07.212,simple VEP,2022.2.4,None,
,,,,220,0,220,0,,,,,,,,,44.2307168749976,44.2984786249981,638027,001,2023-03-18_09h52.07.212,simple VEP,2022.2.4,None,
,,,,221,0,221,0,,,,,,,,,44.2984786249981,44.3644967500004,638027,001,2023-03-18_09h52.07.212,simple VEP,2022.2.4,None,
,,,,222,0,222,0,,,,,,,,,44.3644967500004,44.43073312499837,638027,001,2023-03-18_09h52.07.212,simple VEP,2022.2.4,None,
,,,,223,0,223,0,,,,,,,,,44.43073312499837,44.48933316699913,638027,001,2023-03-18_09h52.07.212,simple VEP,2022.2.4,None,
,,,,224,0,224,0,,,,,,,,,44.48933316699913,44.5468988749999,638027,001,2023-03-18_09h52.07.212,simple VEP,2022.2.4,None,
,,,,225,0,225,0,,,,,,,,,44.5468988749999,44.61528570899827,638027,001,2023-03-18_09h52.07.212,simple VEP,2022.2.4,None,
,,,,226,0,226,0,,,,,,,,,44.61528570899827,44.682121083998936,638027,001,2023-03-18_09h52.07.212,simple VEP,2022.2.4,None,
,,,,227,0,227,0,,,,,,,,,44.682121083998936,44.74949137499789,638027,001,2023-03-18_09h52.07.212,simple VEP,2022.2.4,None,
,,,,228,0,228,0,,,,,,,,,44.74949137499789,44.814359874999354,638027,001,2023-03-18_09h52.07.212,simple VEP,2022.2.4,None,
,,,,229,0,229,0,,,,,,,,,44.814359874999354,44.881488833998446,638027,001,2023-03-18_09h52.07.212,simple VEP,2022.2.4,None,
,,,,230,0,230,0,,,,,,,,,44.881488833998446,44.94746333399962,638027,001,2023-03-18_09h52.07.212,simple VEP,2022.2.4,None,
,,,,231,0,231,0,,,,,,,,,44.94746333399962,45.01771791699866,638027,001,2023-03-18_09h52.07.212,simple VEP,2022.2.4,None,
,,,,232,0,232,0,,,,,,,,,45.01771791699866,45.079951333998906,638027,001,2023-03-18_09h52.07.212,simple VEP,2022.2.4,None,
,,,,233,0,233,0,,,,,,,,,45.079951333998906,45.139113375000306,638027,001,2023-03-18_09h52.07.212,simple VEP,2022.2.4,None,
,,,,234,0,234,0,,,,,,,,,45.139113375000306,45.199628291997215,638027,001,2023-03-18_09h52.07.212,simple VEP,2022.2.4,None,
,,,,235,0,235,0,,,,,,,,,45.199628291997215,45.264629416997195,638027,001,2023-03-18_09h52.07.212,simple VEP,2022.2.4,None,
,,,,236,0,236,0,,,,,,,,,45.264629416997195,45.328856459000235,638027,001,2023-03-18_09h52.07.212,simple VEP,2022.2.4,None,
,,,,237,0,237,0,,,,,,,,,45.328856459000235,45.389163791998726,638027,001,2023-03-18_09h52.07.212,simple VEP,2022.2.4,None,
,,,,238,0,238,0,,,,,,,,,45.389163791998726,45.44759045899991,638027,001,2023-03-18_09h52.07.212,simple VEP,2022.2.4,None,
,,,,239,0,239,0,,,,,,,,,45.44759045899991,45.51474516699818,638027,001,2023-03-18_09h52.07.212,simple VEP,2022.2.4,None,
,,,,240,0,240,0,,,,,,,,,45.51474516699818,45.58165849999932,638027,001,2023-03-18_09h52.07.212,simple VEP,2022.2.4,None,
,,,,241,0,241,0,,,,,,,,,45.58165849999932,45.64791295900068,638027,001,2023-03-18_09h52.07.212,simple VEP,2022.2.4,None,
,,,,242,0,242,0,,,,,,,,,45.64791295900068,45.71353325000018,638027,001,2023-03-18_09h52.07.212,simple VEP,2022.2.4,None,
,,,,243,0,243,0,,,,,,,,,45.71353325000018,45.781479041997954,638027,001,2023-03-18_09h52.07.212,simple VEP,2022.2.4,None,
,,,,244,0,244,0,,,,,,,,,45.781479041997954,45.8480099169974,638027,001,2023-03-18_09h52.07.212,simple VEP,2022.2.4,None,
,,,,245,0,245,0,,,,,,,,,45.8480099169974,45.90621545899921,638027,001,2023-03-18_09h52.07.212,simple VEP,2022.2.4,None,
,,,,246,0,246,0,,,,,,,,,45.90621545899921,45.96442333400046,638027,001,2023-03-18_09h52.07.212,simple VEP,2022.2.4,None,
,,,,247,0,247,0,,,,,,,,,45.96442333400046,46.03194325000004,638027,001,2023-03-18_09h52.07.212,simple VEP,2022.2.4,None,
,,,,248,0,248,0,,,,,,,,,46.03194325000004,46.09979379200013,638027,001,2023-03-18_09h52.07.212,simple VEP,2022.2.4,None,
,,,,249,0,249,0,,,,,,,,,46.09979379200013,46.164375124997605,638027,001,2023-03-18_09h52.07.212,simple VEP,2022.2.4,None,
,,,,250,0,250,0,,,,,,,,,46.164375124997605,46.230246041999635,638027,001,2023-03-18_09h52.07.212,simple VEP,2022.2.4,None,
,,,,251,0,251,0,,,,,,,,,46.230246041999635,46.28909495900007,638027,001,2023-03-18_09h52.07.212,simple VEP,2022.2.4,None,
,,,,252,0,252,0,,,,,,,,,46.28909495900007,46.34672629199849,638027,001,2023-03-18_09h52.07.212,simple VEP,2022.2.4,None,
,,,,253,0,253,0,,,,,,,,,46.34672629199849,46.40568658399934,638027,001,2023-03-18_09h52.07.212,simple VEP,2022.2.4,None,
,,,,254,0,254,0,,,,,,,,,46.40568658399934,46.46519237499888,638027,001,2023-03-18_09h52.07.212,simple VEP,2022.2.4,None,
,,,,255,0,255,0,,,,,,,,,46.46519237499888,46.533135792000394,638027,001,2023-03-18_09h52.07.212,simple VEP,2022.2.4,None,
,,,,256,0,256,0,,,,,,,,,46.533135792000394,46.59955291699953,638027,001,2023-03-18_09h52.07.212,simple VEP,2022.2.4,None,
,,,,257,0,257,0,,,,,,,,,46.59955291699953,46.66459008399761,638027,001,2023-03-18_09h52.07.212,simple VEP,2022.2.4,None,
,,,,258,0,258,0,,,,,,,,,46.66459008399761,46.73072279199914,638027,001,2023-03-18_09h52.07.212,simple VEP,2022.2.4,None,
,,,,259,0,259,0,,,,,,,,,46.73072279199914,46.78963812499933,638027,001,2023-03-18_09h52.07.212,simple VEP,2022.2.4,None,
,,,,260,0,260,0,,,,,,,,,46.78963812499933,46.84712666699852,638027,001,2023-03-18_09h52.07.212,simple VEP,2022.2.4,None,
,,,,261,0,261,0,,,,,,,,,46.84712666699852,46.915477999998984,638027,001,2023-03-18_09h52.07.212,simple VEP,2022.2.4,None,
,,,,262,0,262,0,,,,,,,,,46.915477999998984,46.98348533399985,638027,001,2023-03-18_09h52.07.212,simple VEP,2022.2.4,None,
,,,,263,0,263,0,,,,,,,,,46.98348533399985,47.04806745899987,638027,001,2023-03-18_09h52.07.212,simple VEP,2022.2.4,None,
,,,,264,0,264,0,,,,,,,,,47.04806745899987,47.11480508399836,638027,001,2023-03-18_09h52.07.212,simple VEP,2022.2.4,None,
,,,,265,0,265,0,,,,,,,,,47.11480508399836,47.18142645899934,638027,001,2023-03-18_09h52.07.212,simple VEP,2022.2.4,None,
,,,,266,0,266,0,,,,,,,,,47.18142645899934,47.248492999999144,638027,001,2023-03-18_09h52.07.212,simple VEP,2022.2.4,None,
,,,,267,0,267,0,,,,,,,,,47.248492999999144,47.313939084000594,638027,001,2023-03-18_09h52.07.212,simple VEP,2022.2.4,None,
,,,,268,0,268,0,,,,,,,,,47.313939084000594,47.37189862499872,638027,001,2023-03-18_09h52.07.212,simple VEP,2022.2.4,None,
,,,,269,0,269,0,,,,,,,,,47.37189862499872,47.433095083997614,638027,001,2023-03-18_09h52.07.212,simple VEP,2022.2.4,None,
,,,,270,0,270,0,,,,,,,,,47.433095083997614,47.49895362499956,638027,001,2023-03-18_09h52.07.212,simple VEP,2022.2.4,None,
,,,,271,0,271,0,,,,,,,,,47.49895362499956,47.56456187499862,638027,001,2023-03-18_09h52.07.212,simple VEP,2022.2.4,None,
,,,,272,0,272,0,,,,,,,,,47.56456187499862,47.631074375000026,638027,001,2023-03-18_09h52.07.212,simple VEP,2022.2.4,None,
,,,,273,0,273,0,,,,,,,,,47.631074375000026,47.6984124169976,638027,001,2023-03-18_09h52.07.212,simple VEP,2022.2.4,None,
,,,,274,0,274,0,,,,,,,,,47.6984124169976,47.76527137499943,638027,001,2023-03-18_09h52.07.212,simple VEP,2022.2.4,None,
,,,,275,0,275,0,,,,,,,,,47.76527137499943,47.83068241699948,638027,001,2023-03-18_09h52.07.212,simple VEP,2022.2.4,None,
,,,,276,0,276,0,,,,,,,,,47.83068241699948,47.89054454199868,638027,001,2023-03-18_09h52.07.212,simple VEP,2022.2.4,None,
,,,,277,0,277,0,,,,,,,,,47.89054454199868,47.955814875000215,638027,001,2023-03-18_09h52.07.212,simple VEP,2022.2.4,None,
,,,,278,0,278,0,,,,,,,,,47.955814875000215,48.013108708997606,638027,001,2023-03-18_09h52.07.212,simple VEP,2022.2.4,None,
,,,,279,0,279,0,,,,,,,,,48.013108708997606,48.072462959000404,638027,001,2023-03-18_09h52.07.212,simple VEP,2022.2.4,None,
,,,,280,0,280,0,,,,,,,,,48.072462959000404,48.139388249997864,638027,001,2023-03-18_09h52.07.212,simple VEP,2022.2.4,None,
,,,,281,0,281,0,,,,,,,,,48.139388249997864,48.19749291699918,638027,001,2023-03-18_09h52.07.212,simple VEP,2022.2.4,None,
,,,,282,0,282,0,,,,,,,,,48.19749291699918,48.26549083399732,638027,001,2023-03-18_09h52.07.212,simple VEP,2022.2.4,None,
,,,,283,0,283,0,,,,,,,,,48.26549083399732,48.33302391699908,638027,001,2023-03-18_09h52.07.212,simple VEP,2022.2.4,None,
,,,,284,0,284,0,,,,,,,,,48.33302391699908,48.39840058399932,638027,001,2023-03-18_09h52.07.212,simple VEP,2022.2.4,None,
,,,,285,0,285,0,,,,,,,,,48.39840058399932,48.46478366699739,638027,001,2023-03-18_09h52.07.212,simple VEP,2022.2.4,None,
,,,,286,0,286,0,,,,,,,,,48.46478366699739,48.53071624999939,638027,001,2023-03-18_09h52.07.212,simple VEP,2022.2.4,None,
,,,,287,0,287,0,,,,,,,,,48.53071624999939,48.59542112499912,638027,001,2023-03-18_09h52.07.212,simple VEP,2022.2.4,None,
,,,,288,0,288,0,,,,,,,,,48.59542112499912,48.65613895899878,638027,001,2023-03-18_09h52.07.212,simple VEP,2022.2.4,None,
,,,,289,0,289,0,,,,,,,,,48.65613895899878,48.714589541999885,638027,001,2023-03-18_09h52.07.212,simple VEP,2022.2.4,None,
,,,,290,0,290,0,,,,,,,,,48.714589541999885,48.781732291998196,638027,001,2023-03-18_09h52.07.212,simple VEP,2022.2.4,None,
,,,,291,0,291,0,,,,,,,,,48.781732291998196,48.84667283399904,638027,001,2023-03-18_09h52.07.212,simple VEP,2022.2.4,None,
,,,,292,0,292,0,,,,,,,,,48.84667283399904,48.905302708997624,638027,001,2023-03-18_09h52.07.212,simple VEP,2022.2.4,None,
,,,,293,0,293,0,,,,,,,,,48.905302708997624,48.961998999999196,638027,001,2023-03-18_09h52.07.212,simple VEP,2022.2.4,None,
,,,,294,0,294,0,,,,,,,,,48.961998999999196,49.02278383399971,638027,001,2023-03-18_09h52.07.212,simple VEP,2022.2.4,None,
,,,,295,0,295,0,,,,,,,,,49.02278383399971,49.080568083998514,638027,001,2023-03-18_09h52.07.212,simple VEP,2022.2.4,None,
,,,,296,0,296,0,,,,,,,,,49.080568083998514,49.15000462500029,638027,001,2023-03-18_09h52.07.212,simple VEP,2022.2.4,None,
,,,,297,0,297,0,,,,,,,,,49.15000462500029,49.21476262500073,638027,001,2023-03-18_09h52.07.212,simple VEP,2022.2.4,None,
,,,,298,0,298,0,,,,,,,,,49.21476262500073,49.28122070899917,638027,001,2023-03-18_09h52.07.212,simple VEP,2022.2.4,None,
,,,,299,0,299,0,,,,,,,,,49.28122070899917,49.34580791699773,638027,001,2023-03-18_09h52.07.212,simple VEP,2022.2.4,None,
