trials.thisRepN,trials.thisTrialN,trials.thisN,trials.thisIndex,trials_2.thisRepN,trials_2.thisTrialN,trials_2.thisN,trials_2.thisIndex,image.started,fixation.started,image.stopped,fixation.stopped,image_2.started,fixation_2.started,image_2.stopped,fixation_2.stopped,newfix.started,newfix.stopped,participant,session,date,expName,psychopyVersion,frameRate,
0,0,0,0,,,,,10.507825583998056,10.507825583998056,10.587437292000686,10.587437292000686,10.587437292000686,10.587437292000686,10.646595292000711,10.646595292000711,,,922261,001,2023-03-18_09h50.32.869,simple VEP,2022.2.4,None,
1,0,1,0,,,,,10.646595292000711,10.646595292000711,10.712356916999852,10.712356916999852,10.712356916999852,10.712356916999852,10.771372833998612,10.771372833998612,,,922261,001,2023-03-18_09h50.32.869,simple VEP,2022.2.4,None,
2,0,2,0,,,,,10.771372833998612,10.771372833998612,10.830269083999156,10.830269083999156,10.830269083999156,10.830269083999156,10.889301333998446,10.889301333998446,,,922261,001,2023-03-18_09h50.32.869,simple VEP,2022.2.4,None,
3,0,3,0,,,,,10.889301333998446,10.889301333998446,10.948733459001232,10.948733459001232,10.948733459001232,10.948733459001232,11.015219166998577,11.015219166998577,,,922261,001,2023-03-18_09h50.32.869,simple VEP,2022.2.4,None,
4,0,4,0,,,,,11.015219166998577,11.015219166998577,11.08085995899819,11.08085995899819,11.08085995899819,11.08085995899819,11.13946870899963,11.13946870899963,,,922261,001,2023-03-18_09h50.32.869,simple VEP,2022.2.4,None,
5,0,5,0,,,,,11.13946870899963,11.13946870899963,11.20596095899964,11.20596095899964,11.20596095899964,11.20596095899964,11.266044708998379,11.266044708998379,,,922261,001,2023-03-18_09h50.32.869,simple VEP,2022.2.4,None,
6,0,6,0,,,,,11.266044708998379,11.266044708998379,11.330550416998449,11.330550416998449,11.330550416998449,11.330550416998449,11.390609041998687,11.390609041998687,,,922261,001,2023-03-18_09h50.32.869,simple VEP,2022.2.4,None,
7,0,7,0,,,,,11.390609041998687,11.390609041998687,11.455448124997929,11.455448124997929,11.455448124997929,11.455448124997929,11.516113917001348,11.516113917001348,,,922261,001,2023-03-18_09h50.32.869,simple VEP,2022.2.4,None,
8,0,8,0,,,,,11.516113917001348,11.516113917001348,11.58927974999824,11.58927974999824,11.58927974999824,11.58927974999824,11.648375917000521,11.648375917000521,,,922261,001,2023-03-18_09h50.32.869,simple VEP,2022.2.4,None,
9,0,9,0,,,,,11.648375917000521,11.648375917000521,11.722550416998274,11.722550416998274,11.722550416998274,11.722550416998274,11.78118666699811,11.78118666699811,,,922261,001,2023-03-18_09h50.32.869,simple VEP,2022.2.4,None,
10,0,10,0,,,,,11.78118666699811,11.78118666699811,11.848359708998032,11.848359708998032,11.848359708998032,11.848359708998032,11.90923174999989,11.90923174999989,,,922261,001,2023-03-18_09h50.32.869,simple VEP,2022.2.4,None,
11,0,11,0,,,,,11.90923174999989,11.90923174999989,11.972117999997863,11.972117999997863,11.972117999997863,11.972117999997863,12.031668499999796,12.031668499999796,,,922261,001,2023-03-18_09h50.32.869,simple VEP,2022.2.4,None,
12,0,12,0,,,,,12.031668499999796,12.031668499999796,12.101172999999108,12.101172999999108,12.101172999999108,12.101172999999108,12.162023834000138,12.162023834000138,,,922261,001,2023-03-18_09h50.32.869,simple VEP,2022.2.4,None,
13,0,13,0,,,,,12.162023834000138,12.162023834000138,12.230337583998335,12.230337583998335,12.230337583998335,12.230337583998335,12.288793374998932,12.288793374998932,,,922261,001,2023-03-18_09h50.32.869,simple VEP,2022.2.4,None,
14,0,14,0,,,,,12.288793374998932,12.288793374998932,12.347549792000791,12.347549792000791,12.347549792000791,12.347549792000791,12.417937916998198,12.417937916998198,,,922261,001,2023-03-18_09h50.32.869,simple VEP,2022.2.4,None,
15,0,15,0,,,,,12.417937916998198,12.417937916998198,12.480391666998912,12.480391666998912,12.480391666998912,12.480391666998912,12.539510874998086,12.539510874998086,,,922261,001,2023-03-18_09h50.32.869,simple VEP,2022.2.4,None,
16,0,16,0,,,,,12.539510874998086,12.539510874998086,12.598303124999802,12.598303124999802,12.598303124999802,12.598303124999802,12.663787041998148,12.663787041998148,,,922261,001,2023-03-18_09h50.32.869,simple VEP,2022.2.4,None,
17,0,17,0,,,,,12.663787041998148,12.663787041998148,12.723991041999398,12.723991041999398,12.723991041999398,12.723991041999398,12.789959166999324,12.789959166999324,,,922261,001,2023-03-18_09h50.32.869,simple VEP,2022.2.4,None,
18,0,18,0,,,,,12.789959166999324,12.789959166999324,12.855090000000928,12.855090000000928,12.855090000000928,12.855090000000928,12.913471584000945,12.913471584000945,,,922261,001,2023-03-18_09h50.32.869,simple VEP,2022.2.4,None,
19,0,19,0,,,,,12.913471584000945,12.913471584000945,12.972584458999336,12.972584458999336,12.972584458999336,12.972584458999336,13.032326874999853,13.032326874999853,,,922261,001,2023-03-18_09h50.32.869,simple VEP,2022.2.4,None,
20,0,20,0,,,,,13.032326874999853,13.032326874999853,13.097831916998985,13.097831916998985,13.097831916998985,13.097831916998985,13.169772000001103,13.169772000001103,,,922261,001,2023-03-18_09h50.32.869,simple VEP,2022.2.4,None,
21,0,21,0,,,,,13.169772000001103,13.169772000001103,13.228572333999182,13.228572333999182,13.228572333999182,13.228572333999182,13.290677583998331,13.290677583998331,,,922261,001,2023-03-18_09h50.32.869,simple VEP,2022.2.4,None,
22,0,22,0,,,,,13.290677583998331,13.290677583998331,13.355568374998256,13.355568374998256,13.355568374998256,13.355568374998256,13.41417329199976,13.41417329199976,,,922261,001,2023-03-18_09h50.32.869,simple VEP,2022.2.4,None,
23,0,23,0,,,,,13.41417329199976,13.41417329199976,13.472157333999348,13.472157333999348,13.472157333999348,13.472157333999348,13.535909916998207,13.535909916998207,,,922261,001,2023-03-18_09h50.32.869,simple VEP,2022.2.4,None,
24,0,24,0,,,,,13.535909916998207,13.535909916998207,13.596921166998072,13.596921166998072,13.596921166998072,13.596921166998072,13.65665320900007,13.65665320900007,,,922261,001,2023-03-18_09h50.32.869,simple VEP,2022.2.4,None,
25,0,25,0,,,,,13.65665320900007,13.65665320900007,13.721873250000499,13.721873250000499,13.721873250000499,13.721873250000499,13.782461124999827,13.782461124999827,,,922261,001,2023-03-18_09h50.32.869,simple VEP,2022.2.4,None,
26,0,26,0,,,,,13.782461124999827,13.782461124999827,13.847249583999655,13.847249583999655,13.847249583999655,13.847249583999655,13.91215241700047,13.91215241700047,,,922261,001,2023-03-18_09h50.32.869,simple VEP,2022.2.4,None,
27,0,27,0,,,,,13.91215241700047,13.91215241700047,13.972741499997937,13.972741499997937,13.972741499997937,13.972741499997937,14.030787374998908,14.030787374998908,,,922261,001,2023-03-18_09h50.32.869,simple VEP,2022.2.4,None,
28,0,28,0,,,,,14.030787374998908,14.030787374998908,14.096713458999147,14.096713458999147,14.096713458999147,14.096713458999147,14.156498666998232,14.156498666998232,,,922261,001,2023-03-18_09h50.32.869,simple VEP,2022.2.4,None,
29,0,29,0,,,,,14.156498666998232,14.156498666998232,14.213771709000866,14.213771709000866,14.213771709000866,14.213771709000866,14.272070416998758,14.272070416998758,,,922261,001,2023-03-18_09h50.32.869,simple VEP,2022.2.4,None,
30,0,30,0,,,,,14.272070416998758,14.272070416998758,14.328408334000414,14.328408334000414,14.328408334000414,14.328408334000414,14.388402874999883,14.388402874999883,,,922261,001,2023-03-18_09h50.32.869,simple VEP,2022.2.4,None,
31,0,31,0,,,,,14.388402874999883,14.388402874999883,14.446116999999504,14.446116999999504,14.446116999999504,14.446116999999504,14.505567416999838,14.505567416999838,,,922261,001,2023-03-18_09h50.32.869,simple VEP,2022.2.4,None,
32,0,32,0,,,,,14.505567416999838,14.505567416999838,14.564310124998883,14.564310124998883,14.564310124998883,14.564310124998883,14.632151083998906,14.632151083998906,,,922261,001,2023-03-18_09h50.32.869,simple VEP,2022.2.4,None,
33,0,33,0,,,,,14.632151083998906,14.632151083998906,14.696140000000014,14.696140000000014,14.696140000000014,14.696140000000014,14.763255750000098,14.763255750000098,,,922261,001,2023-03-18_09h50.32.869,simple VEP,2022.2.4,None,
34,0,34,0,,,,,14.763255750000098,14.763255750000098,14.822399708999,14.822399708999,14.822399708999,14.822399708999,14.88154887500059,14.88154887500059,,,922261,001,2023-03-18_09h50.32.869,simple VEP,2022.2.4,None,
35,0,35,0,,,,,14.88154887500059,14.88154887500059,14.945342458999221,14.945342458999221,14.945342458999221,14.945342458999221,15.006250667000131,15.006250667000131,,,922261,001,2023-03-18_09h50.32.869,simple VEP,2022.2.4,None,
36,0,36,0,,,,,15.006250667000131,15.006250667000131,15.072063916999468,15.072063916999468,15.072063916999468,15.072063916999468,15.131876999999804,15.131876999999804,,,922261,001,2023-03-18_09h50.32.869,simple VEP,2022.2.4,None,
37,0,37,0,,,,,15.131876999999804,15.131876999999804,15.198282708999614,15.198282708999614,15.198282708999614,15.198282708999614,15.256966834000195,15.256966834000195,,,922261,001,2023-03-18_09h50.32.869,simple VEP,2022.2.4,None,
38,0,38,0,,,,,15.256966834000195,15.256966834000195,15.322483874999307,15.322483874999307,15.322483874999307,15.322483874999307,15.386450166999566,15.386450166999566,,,922261,001,2023-03-18_09h50.32.869,simple VEP,2022.2.4,None,
39,0,39,0,,,,,15.386450166999566,15.386450166999566,15.444658459000493,15.444658459000493,15.444658459000493,15.444658459000493,15.504656124998291,15.504656124998291,,,922261,001,2023-03-18_09h50.32.869,simple VEP,2022.2.4,None,
40,0,40,0,,,,,15.504656124998291,15.504656124998291,15.563358333998622,15.563358333998622,15.563358333998622,15.563358333998622,15.622103624999,15.622103624999,,,922261,001,2023-03-18_09h50.32.869,simple VEP,2022.2.4,None,
41,0,41,0,,,,,15.622103624999,15.622103624999,15.679966416999378,15.679966416999378,15.679966416999378,15.679966416999378,15.749082124999404,15.749082124999404,,,922261,001,2023-03-18_09h50.32.869,simple VEP,2022.2.4,None,
42,0,42,0,,,,,15.749082124999404,15.749082124999404,15.812588249998953,15.812588249998953,15.812588249998953,15.812588249998953,15.872412542001257,15.872412542001257,,,922261,001,2023-03-18_09h50.32.869,simple VEP,2022.2.4,None,
43,0,43,0,,,,,15.872412542001257,15.872412542001257,15.931544416998804,15.931544416998804,15.931544416998804,15.931544416998804,15.989398166999308,15.989398166999308,,,922261,001,2023-03-18_09h50.32.869,simple VEP,2022.2.4,None,
44,0,44,0,,,,,15.989398166999308,15.989398166999308,16.05123199999798,16.05123199999798,16.05123199999798,16.05123199999798,16.114962042000116,16.114962042000116,,,922261,001,2023-03-18_09h50.32.869,simple VEP,2022.2.4,None,
45,0,45,0,,,,,16.114962042000116,16.114962042000116,16.181557708998298,16.181557708998298,16.181557708998298,16.181557708998298,16.239250333997916,16.239250333997916,,,922261,001,2023-03-18_09h50.32.869,simple VEP,2022.2.4,None,
46,0,46,0,,,,,16.239250333997916,16.239250333997916,16.305522124999698,16.305522124999698,16.305522124999698,16.305522124999698,16.366902083998866,16.366902083998866,,,922261,001,2023-03-18_09h50.32.869,simple VEP,2022.2.4,None,
47,0,47,0,,,,,16.366902083998866,16.366902083998866,16.43989095899815,16.43989095899815,16.43989095899815,16.43989095899815,16.49771754199901,16.49771754199901,,,922261,001,2023-03-18_09h50.32.869,simple VEP,2022.2.4,None,
48,0,48,0,,,,,16.49771754199901,16.49771754199901,16.56500545900053,16.56500545900053,16.56500545900053,16.56500545900053,16.623037459001353,16.623037459001353,,,922261,001,2023-03-18_09h50.32.869,simple VEP,2022.2.4,None,
49,0,49,0,,,,,16.623037459001353,16.623037459001353,16.680480250000983,16.680480250000983,16.680480250000983,16.680480250000983,16.7393364999989,16.7393364999989,,,922261,001,2023-03-18_09h50.32.869,simple VEP,2022.2.4,None,
50,0,50,0,,,,,16.7393364999989,16.7393364999989,16.795319583998207,16.795319583998207,16.795319583998207,16.795319583998207,16.855218500000774,16.855218500000774,,,922261,001,2023-03-18_09h50.32.869,simple VEP,2022.2.4,None,
51,0,51,0,,,,,16.855218500000774,16.855218500000774,16.912732333999884,16.912732333999884,16.912732333999884,16.912732333999884,16.972178374999203,16.972178374999203,,,922261,001,2023-03-18_09h50.32.869,simple VEP,2022.2.4,None,
52,0,52,0,,,,,16.972178374999203,16.972178374999203,17.030662749999465,17.030662749999465,17.030662749999465,17.030662749999465,17.089358917000936,17.089358917000936,,,922261,001,2023-03-18_09h50.32.869,simple VEP,2022.2.4,None,
53,0,53,0,,,,,17.089358917000936,17.089358917000936,17.14678345900029,17.14678345900029,17.14678345900029,17.14678345900029,17.215424083999096,17.215424083999096,,,922261,001,2023-03-18_09h50.32.869,simple VEP,2022.2.4,None,
54,0,54,0,,,,,17.215424083999096,17.215424083999096,17.278201959001308,17.278201959001308,17.278201959001308,17.278201959001308,17.33954633399844,17.33954633399844,,,922261,001,2023-03-18_09h50.32.869,simple VEP,2022.2.4,None,
55,0,55,0,,,,,17.33954633399844,17.33954633399844,17.395272708999983,17.395272708999983,17.395272708999983,17.395272708999983,17.455396334000397,17.455396334000397,,,922261,001,2023-03-18_09h50.32.869,simple VEP,2022.2.4,None,
56,0,56,0,,,,,17.455396334000397,17.455396334000397,17.513424166998448,17.513424166998448,17.513424166998448,17.513424166998448,17.57136620899837,17.57136620899837,,,922261,001,2023-03-18_09h50.32.869,simple VEP,2022.2.4,None,
57,0,57,0,,,,,17.57136620899837,17.57136620899837,17.632771917000355,17.632771917000355,17.632771917000355,17.632771917000355,17.696670375000394,17.696670375000394,,,922261,001,2023-03-18_09h50.32.869,simple VEP,2022.2.4,None,
58,0,58,0,,,,,17.696670375000394,17.696670375000394,17.75512316700042,17.75512316700042,17.75512316700042,17.75512316700042,17.814102500000445,17.814102500000445,,,922261,001,2023-03-18_09h50.32.869,simple VEP,2022.2.4,None,
59,0,59,0,,,,,17.814102500000445,17.814102500000445,17.87315099999978,17.87315099999978,17.87315099999978,17.87315099999978,17.93921862500065,17.93921862500065,,,922261,001,2023-03-18_09h50.32.869,simple VEP,2022.2.4,None,
60,0,60,0,,,,,17.93921862500065,17.93921862500065,17.997887958998035,17.997887958998035,17.997887958998035,17.997887958998035,18.065060624998296,18.065060624998296,,,922261,001,2023-03-18_09h50.32.869,simple VEP,2022.2.4,None,
61,0,61,0,,,,,18.065060624998296,18.065060624998296,18.130675791999238,18.130675791999238,18.130675791999238,18.130675791999238,18.199328167000203,18.199328167000203,,,922261,001,2023-03-18_09h50.32.869,simple VEP,2022.2.4,None,
62,0,62,0,,,,,18.199328167000203,18.199328167000203,18.264480624999123,18.264480624999123,18.264480624999123,18.264480624999123,18.329169791999448,18.329169791999448,,,922261,001,2023-03-18_09h50.32.869,simple VEP,2022.2.4,None,
63,0,63,0,,,,,18.329169791999448,18.329169791999448,18.388529584000935,18.388529584000935,18.388529584000935,18.388529584000935,18.448563709000155,18.448563709000155,,,922261,001,2023-03-18_09h50.32.869,simple VEP,2022.2.4,None,
64,0,64,0,,,,,18.448563709000155,18.448563709000155,18.514828084000328,18.514828084000328,18.514828084000328,18.514828084000328,18.58191862500098,18.58191862500098,,,922261,001,2023-03-18_09h50.32.869,simple VEP,2022.2.4,None,
65,0,65,0,,,,,18.58191862500098,18.58191862500098,18.646408083997812,18.646408083997812,18.646408083997812,18.646408083997812,18.710408458999154,18.710408458999154,,,922261,001,2023-03-18_09h50.32.869,simple VEP,2022.2.4,None,
66,0,66,0,,,,,18.710408458999154,18.710408458999154,18.771901125001023,18.771901125001023,18.771901125001023,18.771901125001023,18.831259041999147,18.831259041999147,,,922261,001,2023-03-18_09h50.32.869,simple VEP,2022.2.4,None,
67,0,67,0,,,,,18.831259041999147,18.831259041999147,18.88915470899883,18.88915470899883,18.88915470899883,18.88915470899883,18.947988666997844,18.947988666997844,,,922261,001,2023-03-18_09h50.32.869,simple VEP,2022.2.4,None,
68,0,68,0,,,,,18.947988666997844,18.947988666997844,19.01424791699901,19.01424791699901,19.01424791699901,19.01424791699901,19.08525112499774,19.08525112499774,,,922261,001,2023-03-18_09h50.32.869,simple VEP,2022.2.4,None,
69,0,69,0,,,,,19.08525112499774,19.08525112499774,19.146140708999155,19.146140708999155,19.146140708999155,19.146140708999155,19.20561341699795,19.20561341699795,,,922261,001,2023-03-18_09h50.32.869,simple VEP,2022.2.4,None,
70,0,70,0,,,,,19.20561341699795,19.20561341699795,19.264691333999508,19.264691333999508,19.264691333999508,19.264691333999508,19.330205166999804,19.330205166999804,,,922261,001,2023-03-18_09h50.32.869,simple VEP,2022.2.4,None,
71,0,71,0,,,,,19.330205166999804,19.330205166999804,19.38870395900085,19.38870395900085,19.38870395900085,19.38870395900085,19.451407124997786,19.451407124997786,,,922261,001,2023-03-18_09h50.32.869,simple VEP,2022.2.4,None,
72,0,72,0,,,,,19.451407124997786,19.451407124997786,19.51331337499869,19.51331337499869,19.51331337499869,19.51331337499869,19.572321958999964,19.572321958999964,,,922261,001,2023-03-18_09h50.32.869,simple VEP,2022.2.4,None,
73,0,73,0,,,,,19.572321958999964,19.572321958999964,19.630509750000783,19.630509750000783,19.630509750000783,19.630509750000783,19.698088375000225,19.698088375000225,,,922261,001,2023-03-18_09h50.32.869,simple VEP,2022.2.4,None,
74,0,74,0,,,,,19.698088375000225,19.698088375000225,19.755877333998797,19.755877333998797,19.755877333998797,19.755877333998797,19.814057291998324,19.814057291998324,,,922261,001,2023-03-18_09h50.32.869,simple VEP,2022.2.4,None,
75,0,75,0,,,,,19.814057291998324,19.814057291998324,19.87207275000037,19.87207275000037,19.87207275000037,19.87207275000037,19.93109858399839,19.93109858399839,,,922261,001,2023-03-18_09h50.32.869,simple VEP,2022.2.4,None,
76,0,76,0,,,,,19.93109858399839,19.93109858399839,19.996967874998518,19.996967874998518,19.996967874998518,19.996967874998518,20.055555209000886,20.055555209000886,,,922261,001,2023-03-18_09h50.32.869,simple VEP,2022.2.4,None,
77,0,77,0,,,,,20.055555209000886,20.055555209000886,20.113751000000775,20.113751000000775,20.113751000000775,20.113751000000775,20.171658667000884,20.171658667000884,,,922261,001,2023-03-18_09h50.32.869,simple VEP,2022.2.4,None,
78,0,78,0,,,,,20.171658667000884,20.171658667000884,20.228169166999578,20.228169166999578,20.228169166999578,20.228169166999578,20.289929374997882,20.289929374997882,,,922261,001,2023-03-18_09h50.32.869,simple VEP,2022.2.4,None,
79,0,79,0,,,,,20.289929374997882,20.289929374997882,20.35504362500069,20.35504362500069,20.35504362500069,20.35504362500069,20.414738584000588,20.414738584000588,,,922261,001,2023-03-18_09h50.32.869,simple VEP,2022.2.4,None,
80,0,80,0,,,,,20.414738584000588,20.414738584000588,20.479113458997745,20.479113458997745,20.479113458997745,20.479113458997745,20.53848316699805,20.53848316699805,,,922261,001,2023-03-18_09h50.32.869,simple VEP,2022.2.4,None,
81,0,81,0,,,,,20.53848316699805,20.53848316699805,20.605568250000942,20.605568250000942,20.605568250000942,20.605568250000942,20.665297625000676,20.665297625000676,,,922261,001,2023-03-18_09h50.32.869,simple VEP,2022.2.4,None,
82,0,82,0,,,,,20.665297625000676,20.665297625000676,20.73003804199834,20.73003804199834,20.73003804199834,20.73003804199834,20.788684584000293,20.788684584000293,,,922261,001,2023-03-18_09h50.32.869,simple VEP,2022.2.4,None,
83,0,83,0,,,,,20.788684584000293,20.788684584000293,20.84563241700016,20.84563241700016,20.84563241700016,20.84563241700016,20.904633750000357,20.904633750000357,,,922261,001,2023-03-18_09h50.32.869,simple VEP,2022.2.4,None,
84,0,84,0,,,,,20.904633750000357,20.904633750000357,20.98896841700116,20.98896841700116,20.98896841700116,20.98896841700116,21.047539250001137,21.047539250001137,,,922261,001,2023-03-18_09h50.32.869,simple VEP,2022.2.4,None,
85,0,85,0,,,,,21.047539250001137,21.047539250001137,21.105559249997896,21.105559249997896,21.105559249997896,21.105559249997896,21.16428554199956,21.16428554199956,,,922261,001,2023-03-18_09h50.32.869,simple VEP,2022.2.4,None,
86,0,86,0,,,,,21.16428554199956,21.16428554199956,21.23052666700096,21.23052666700096,21.23052666700096,21.23052666700096,21.292744750000566,21.292744750000566,,,922261,001,2023-03-18_09h50.32.869,simple VEP,2022.2.4,None,
87,0,87,0,,,,,21.292744750000566,21.292744750000566,21.35542516699934,21.35542516699934,21.35542516699934,21.35542516699934,21.41463558399846,21.41463558399846,,,922261,001,2023-03-18_09h50.32.869,simple VEP,2022.2.4,None,
88,0,88,0,,,,,21.41463558399846,21.41463558399846,21.488582083999063,21.488582083999063,21.488582083999063,21.488582083999063,21.548758541997813,21.548758541997813,,,922261,001,2023-03-18_09h50.32.869,simple VEP,2022.2.4,None,
89,0,89,0,,,,,21.548758541997813,21.548758541997813,21.61381129199799,21.61381129199799,21.61381129199799,21.61381129199799,21.679408374999184,21.679408374999184,,,922261,001,2023-03-18_09h50.32.869,simple VEP,2022.2.4,None,
90,0,90,0,,,,,21.679408374999184,21.679408374999184,21.73803062499792,21.73803062499792,21.73803062499792,21.73803062499792,21.797241042000678,21.797241042000678,,,922261,001,2023-03-18_09h50.32.869,simple VEP,2022.2.4,None,
91,0,91,0,,,,,21.797241042000678,21.797241042000678,21.85579954199784,21.85579954199784,21.85579954199784,21.85579954199784,21.91487633399811,21.91487633399811,,,922261,001,2023-03-18_09h50.32.869,simple VEP,2022.2.4,None,
92,0,92,0,,,,,21.91487633399811,21.91487633399811,21.97855641699789,21.97855641699789,21.97855641699789,21.97855641699789,22.03886749999947,22.03886749999947,,,922261,001,2023-03-18_09h50.32.869,simple VEP,2022.2.4,None,
93,0,93,0,,,,,22.03886749999947,22.03886749999947,22.096003583999845,22.096003583999845,22.096003583999845,22.096003583999845,22.15512574999957,22.15512574999957,,,922261,001,2023-03-18_09h50.32.869,simple VEP,2022.2.4,None,
94,0,94,0,,,,,22.15512574999957,22.15512574999957,22.213552791999973,22.213552791999973,22.213552791999973,22.213552791999973,22.271169584000745,22.271169584000745,,,922261,001,2023-03-18_09h50.32.869,simple VEP,2022.2.4,None,
95,0,95,0,,,,,22.271169584000745,22.271169584000745,22.330422833998455,22.330422833998455,22.330422833998455,22.330422833998455,22.388089666997985,22.388089666997985,,,922261,001,2023-03-18_09h50.32.869,simple VEP,2022.2.4,None,
96,0,96,0,,,,,22.388089666997985,22.388089666997985,22.445510834000743,22.445510834000743,22.445510834000743,22.445510834000743,22.50538562499787,22.50538562499787,,,922261,001,2023-03-18_09h50.32.869,simple VEP,2022.2.4,None,
97,0,97,0,,,,,22.50538562499787,22.50538562499787,22.562142874998244,22.562142874998244,22.562142874998244,22.562142874998244,22.622856999998476,22.622856999998476,,,922261,001,2023-03-18_09h50.32.869,simple VEP,2022.2.4,None,
98,0,98,0,,,,,22.622856999998476,22.622856999998476,22.679772291998233,22.679772291998233,22.679772291998233,22.679772291998233,22.739200542000617,22.739200542000617,,,922261,001,2023-03-18_09h50.32.869,simple VEP,2022.2.4,None,
99,0,99,0,,,,,22.739200542000617,22.739200542000617,22.82230083399918,22.82230083399918,22.82230083399918,22.82230083399918,22.881243542000448,22.881243542000448,,,922261,001,2023-03-18_09h50.32.869,simple VEP,2022.2.4,None,
100,0,100,0,,,,,22.881243542000448,22.881243542000448,22.938497333998384,22.938497333998384,22.938497333998384,22.938497333998384,22.996034708998195,22.996034708998195,,,922261,001,2023-03-18_09h50.32.869,simple VEP,2022.2.4,None,
101,0,101,0,,,,,22.996034708998195,22.996034708998195,23.05526220899992,23.05526220899992,23.05526220899992,23.05526220899992,23.11493258399787,23.11493258399787,,,922261,001,2023-03-18_09h50.32.869,simple VEP,2022.2.4,None,
102,0,102,0,,,,,23.11493258399787,23.11493258399787,23.180016375001287,23.180016375001287,23.180016375001287,23.180016375001287,23.239756499999203,23.239756499999203,,,922261,001,2023-03-18_09h50.32.869,simple VEP,2022.2.4,None,
103,0,103,0,,,,,23.239756499999203,23.239756499999203,23.30544870900121,23.30544870900121,23.30544870900121,23.30544870900121,23.364414416999352,23.364414416999352,,,922261,001,2023-03-18_09h50.32.869,simple VEP,2022.2.4,None,
104,0,104,0,,,,,23.364414416999352,23.364414416999352,23.429876874997717,23.429876874997717,23.429876874997717,23.429876874997717,23.488681124999857,23.488681124999857,,,922261,001,2023-03-18_09h50.32.869,simple VEP,2022.2.4,None,
105,0,105,0,,,,,23.488681124999857,23.488681124999857,23.545268875001057,23.545268875001057,23.545268875001057,23.545268875001057,23.605249666998134,23.605249666998134,,,922261,001,2023-03-18_09h50.32.869,simple VEP,2022.2.4,None,
106,0,106,0,,,,,23.605249666998134,23.605249666998134,23.663798041998234,23.663798041998234,23.663798041998234,23.663798041998234,23.731643667000753,23.731643667000753,,,922261,001,2023-03-18_09h50.32.869,simple VEP,2022.2.4,None,
107,0,107,0,,,,,23.731643667000753,23.731643667000753,23.796509833999153,23.796509833999153,23.796509833999153,23.796509833999153,23.855886291999923,23.855886291999923,,,922261,001,2023-03-18_09h50.32.869,simple VEP,2022.2.4,None,
108,0,108,0,,,,,23.855886291999923,23.855886291999923,23.91392441700009,23.91392441700009,23.91392441700009,23.91392441700009,23.971994708997954,23.971994708997954,,,922261,001,2023-03-18_09h50.32.869,simple VEP,2022.2.4,None,
109,0,109,0,,,,,23.971994708997954,23.971994708997954,24.03927133400066,24.03927133400066,24.03927133400066,24.03927133400066,24.09812520899868,24.09812520899868,,,922261,001,2023-03-18_09h50.32.869,simple VEP,2022.2.4,None,
110,0,110,0,,,,,24.09812520899868,24.09812520899868,24.163952250000875,24.163952250000875,24.163952250000875,24.163952250000875,24.251521666999906,24.251521666999906,,,922261,001,2023-03-18_09h50.32.869,simple VEP,2022.2.4,None,
111,0,111,0,,,,,24.251521666999906,24.251521666999906,24.31403020899961,24.31403020899961,24.31403020899961,24.31403020899961,24.381334624999,24.381334624999,,,922261,001,2023-03-18_09h50.32.869,simple VEP,2022.2.4,None,
112,0,112,0,,,,,24.381334624999,24.381334624999,24.43989991700073,24.43989991700073,24.43989991700073,24.43989991700073,24.504462166998564,24.504462166998564,,,922261,001,2023-03-18_09h50.32.869,simple VEP,2022.2.4,None,
113,0,113,0,,,,,24.504462166998564,24.504462166998564,24.56382054200003,24.56382054200003,24.56382054200003,24.56382054200003,24.62272970900085,24.62272970900085,,,922261,001,2023-03-18_09h50.32.869,simple VEP,2022.2.4,None,
114,0,114,0,,,,,24.62272970900085,24.62272970900085,24.678388249998534,24.678388249998534,24.678388249998534,24.678388249998534,24.738986917000148,24.738986917000148,,,922261,001,2023-03-18_09h50.32.869,simple VEP,2022.2.4,None,
115,0,115,0,,,,,24.738986917000148,24.738986917000148,24.796750375000556,24.796750375000556,24.796750375000556,24.796750375000556,24.855644041999767,24.855644041999767,,,922261,001,2023-03-18_09h50.32.869,simple VEP,2022.2.4,None,
116,0,116,0,,,,,24.855644041999767,24.855644041999767,24.91222229199775,24.91222229199775,24.91222229199775,24.91222229199775,24.972266917000525,24.972266917000525,,,922261,001,2023-03-18_09h50.32.869,simple VEP,2022.2.4,None,
117,0,117,0,,,,,24.972266917000525,24.972266917000525,25.030107416998362,25.030107416998362,25.030107416998362,25.030107416998362,25.08859658399888,25.08859658399888,,,922261,001,2023-03-18_09h50.32.869,simple VEP,2022.2.4,None,
118,0,118,0,,,,,25.08859658399888,25.08859658399888,25.14776625000013,25.14776625000013,25.14776625000013,25.14776625000013,25.204800708997936,25.204800708997936,,,922261,001,2023-03-18_09h50.32.869,simple VEP,2022.2.4,None,
119,0,119,0,,,,,25.204800708997936,25.204800708997936,25.263125541998306,25.263125541998306,25.263125541998306,25.263125541998306,25.32654037500106,25.32654037500106,,,922261,001,2023-03-18_09h50.32.869,simple VEP,2022.2.4,None,
120,0,120,0,,,,,25.32654037500106,25.32654037500106,25.38851637499829,25.38851637499829,25.38851637499829,25.38851637499829,25.448060124999756,25.448060124999756,,,922261,001,2023-03-18_09h50.32.869,simple VEP,2022.2.4,None,
121,0,121,0,,,,,25.448060124999756,25.448060124999756,25.513193583999964,25.513193583999964,25.513193583999964,25.513193583999964,25.57113012500122,25.57113012500122,,,922261,001,2023-03-18_09h50.32.869,simple VEP,2022.2.4,None,
122,0,122,0,,,,,25.57113012500122,25.57113012500122,25.630317958999512,25.630317958999512,25.630317958999512,25.630317958999512,25.697898333997728,25.697898333997728,,,922261,001,2023-03-18_09h50.32.869,simple VEP,2022.2.4,None,
123,0,123,0,,,,,25.697898333997728,25.697898333997728,25.762937249997776,25.762937249997776,25.762937249997776,25.762937249997776,25.822858333998738,25.822858333998738,,,922261,001,2023-03-18_09h50.32.869,simple VEP,2022.2.4,None,
124,0,124,0,,,,,25.822858333998738,25.822858333998738,25.879997625001124,25.879997625001124,25.879997625001124,25.879997625001124,25.946053374998883,25.946053374998883,,,922261,001,2023-03-18_09h50.32.869,simple VEP,2022.2.4,None,
125,0,125,0,,,,,25.946053374998883,25.946053374998883,26.00665479199961,26.00665479199961,26.00665479199961,26.00665479199961,26.07133674999932,26.07133674999932,,,922261,001,2023-03-18_09h50.32.869,simple VEP,2022.2.4,None,
126,0,126,0,,,,,26.07133674999932,26.07133674999932,26.131132209000498,26.131132209000498,26.131132209000498,26.131132209000498,26.197667583997827,26.197667583997827,,,922261,001,2023-03-18_09h50.32.869,simple VEP,2022.2.4,None,
127,0,127,0,,,,,26.197667583997827,26.197667583997827,26.256104042000516,26.256104042000516,26.256104042000516,26.256104042000516,26.31517512500068,26.31517512500068,,,922261,001,2023-03-18_09h50.32.869,simple VEP,2022.2.4,None,
128,0,128,0,,,,,26.31517512500068,26.31517512500068,26.38067854199835,26.38067854199835,26.38067854199835,26.38067854199835,26.439015459000075,26.439015459000075,,,922261,001,2023-03-18_09h50.32.869,simple VEP,2022.2.4,None,
129,0,129,0,,,,,26.439015459000075,26.439015459000075,26.497397125000134,26.497397125000134,26.497397125000134,26.497397125000134,26.556835667000996,26.556835667000996,,,922261,001,2023-03-18_09h50.32.869,simple VEP,2022.2.4,None,
130,0,130,0,,,,,26.556835667000996,26.556835667000996,26.622392749999563,26.622392749999563,26.622392749999563,26.622392749999563,26.68169037500047,26.68169037500047,,,922261,001,2023-03-18_09h50.32.869,simple VEP,2022.2.4,None,
131,0,131,0,,,,,26.68169037500047,26.68169037500047,26.746747249999316,26.746747249999316,26.746747249999316,26.746747249999316,26.81345516700094,26.81345516700094,,,922261,001,2023-03-18_09h50.32.869,simple VEP,2022.2.4,None,
132,0,132,0,,,,,26.81345516700094,26.81345516700094,26.88042458400014,26.88042458400014,26.88042458400014,26.88042458400014,26.93952733399783,26.93952733399783,,,922261,001,2023-03-18_09h50.32.869,simple VEP,2022.2.4,None,
133,0,133,0,,,,,26.93952733399783,26.93952733399783,26.996519749998697,26.996519749998697,26.996519749998697,26.996519749998697,27.055904500000906,27.055904500000906,,,922261,001,2023-03-18_09h50.32.869,simple VEP,2022.2.4,None,
134,0,134,0,,,,,27.055904500000906,27.055904500000906,27.115753709000273,27.115753709000273,27.115753709000273,27.115753709000273,27.17864387499867,27.17864387499867,,,922261,001,2023-03-18_09h50.32.869,simple VEP,2022.2.4,None,
135,0,135,0,,,,,27.17864387499867,27.17864387499867,27.23899979199996,27.23899979199996,27.23899979199996,27.23899979199996,27.29879870899822,27.29879870899822,,,922261,001,2023-03-18_09h50.32.869,simple VEP,2022.2.4,None,
136,0,136,0,,,,,27.29879870899822,27.29879870899822,27.362613666999096,27.362613666999096,27.362613666999096,27.362613666999096,27.422505458998785,27.422505458998785,,,922261,001,2023-03-18_09h50.32.869,simple VEP,2022.2.4,None,
137,0,137,0,,,,,27.422505458998785,27.422505458998785,27.48483829199904,27.48483829199904,27.48483829199904,27.48483829199904,27.547561584000505,27.547561584000505,,,922261,001,2023-03-18_09h50.32.869,simple VEP,2022.2.4,None,
138,0,138,0,,,,,27.547561584000505,27.547561584000505,27.60534175000066,27.60534175000066,27.60534175000066,27.60534175000066,27.665136416999303,27.665136416999303,,,922261,001,2023-03-18_09h50.32.869,simple VEP,2022.2.4,None,
139,0,139,0,,,,,27.665136416999303,27.665136416999303,27.729807167001127,27.729807167001127,27.729807167001127,27.729807167001127,27.788942250001128,27.788942250001128,,,922261,001,2023-03-18_09h50.32.869,simple VEP,2022.2.4,None,
140,0,140,0,,,,,27.788942250001128,27.788942250001128,27.847674208998797,27.847674208998797,27.847674208998797,27.847674208998797,27.912228583998512,27.912228583998512,,,922261,001,2023-03-18_09h50.32.869,simple VEP,2022.2.4,None,
141,0,141,0,,,,,27.912228583998512,27.912228583998512,27.972121667000465,27.972121667000465,27.972121667000465,27.972121667000465,28.031176500000583,28.031176500000583,,,922261,001,2023-03-18_09h50.32.869,simple VEP,2022.2.4,None,
142,0,142,0,,,,,28.031176500000583,28.031176500000583,28.09640820899949,28.09640820899949,28.09640820899949,28.09640820899949,28.15554466699905,28.15554466699905,,,922261,001,2023-03-18_09h50.32.869,simple VEP,2022.2.4,None,
143,0,143,0,,,,,28.15554466699905,28.15554466699905,28.222313292000763,28.222313292000763,28.222313292000763,28.222313292000763,28.288646291999612,28.288646291999612,,,922261,001,2023-03-18_09h50.32.869,simple VEP,2022.2.4,None,
144,0,144,0,,,,,28.288646291999612,28.288646291999612,28.347170666998863,28.347170666998863,28.347170666998863,28.347170666998863,28.406150583999988,28.406150583999988,,,922261,001,2023-03-18_09h50.32.869,simple VEP,2022.2.4,None,
145,0,145,0,,,,,28.406150583999988,28.406150583999988,28.464085625000735,28.464085625000735,28.464085625000735,28.464085625000735,28.530826083999273,28.530826083999273,,,922261,001,2023-03-18_09h50.32.869,simple VEP,2022.2.4,None,
146,0,146,0,,,,,28.530826083999273,28.530826083999273,28.60169154200048,28.60169154200048,28.60169154200048,28.60169154200048,28.663979791999736,28.663979791999736,,,922261,001,2023-03-18_09h50.32.869,simple VEP,2022.2.4,None,
147,0,147,0,,,,,28.663979791999736,28.663979791999736,28.72793074999936,28.72793074999936,28.72793074999936,28.72793074999936,28.788743041997805,28.788743041997805,,,922261,001,2023-03-18_09h50.32.869,simple VEP,2022.2.4,None,
148,0,148,0,,,,,28.788743041997805,28.788743041997805,28.84658762500112,28.84658762500112,28.84658762500112,28.84658762500112,28.90555704199869,28.90555704199869,,,922261,001,2023-03-18_09h50.32.869,simple VEP,2022.2.4,None,
149,0,149,0,,,,,28.90555704199869,28.90555704199869,28.963808333999623,28.963808333999623,28.963808333999623,28.963808333999623,29.05497758400088,29.05497758400088,,,922261,001,2023-03-18_09h50.32.869,simple VEP,2022.2.4,None,
,,,,0,0,0,0,,,,,,,,,29.05497758400088,29.11532345899832,922261,001,2023-03-18_09h50.32.869,simple VEP,2022.2.4,None,
,,,,1,0,1,0,,,,,,,,,29.11532345899832,29.180220416998054,922261,001,2023-03-18_09h50.32.869,simple VEP,2022.2.4,None,
,,,,2,0,2,0,,,,,,,,,29.180220416998054,29.247174666998035,922261,001,2023-03-18_09h50.32.869,simple VEP,2022.2.4,None,
,,,,3,0,3,0,,,,,,,,,29.247174666998035,29.313776750001125,922261,001,2023-03-18_09h50.32.869,simple VEP,2022.2.4,None,
,,,,4,0,4,0,,,,,,,,,29.313776750001125,29.381354334000207,922261,001,2023-03-18_09h50.32.869,simple VEP,2022.2.4,None,
,,,,5,0,5,0,,,,,,,,,29.381354334000207,29.447127416999137,922261,001,2023-03-18_09h50.32.869,simple VEP,2022.2.4,None,
,,,,6,0,6,0,,,,,,,,,29.447127416999137,29.514399167001102,922261,001,2023-03-18_09h50.32.869,simple VEP,2022.2.4,None,
,,,,7,0,7,0,,,,,,,,,29.514399167001102,29.581432916998892,922261,001,2023-03-18_09h50.32.869,simple VEP,2022.2.4,None,
,,,,8,0,8,0,,,,,,,,,29.581432916998892,29.647049250001146,922261,001,2023-03-18_09h50.32.869,simple VEP,2022.2.4,None,
,,,,9,0,9,0,,,,,,,,,29.647049250001146,29.705649874998926,922261,001,2023-03-18_09h50.32.869,simple VEP,2022.2.4,None,
,,,,10,0,10,0,,,,,,,,,29.705649874998926,29.764562791999197,922261,001,2023-03-18_09h50.32.869,simple VEP,2022.2.4,None,
,,,,11,0,11,0,,,,,,,,,29.764562791999197,29.831389999999374,922261,001,2023-03-18_09h50.32.869,simple VEP,2022.2.4,None,
,,,,12,0,12,0,,,,,,,,,29.831389999999374,29.895474249999097,922261,001,2023-03-18_09h50.32.869,simple VEP,2022.2.4,None,
,,,,13,0,13,0,,,,,,,,,29.895474249999097,29.955505292000453,922261,001,2023-03-18_09h50.32.869,simple VEP,2022.2.4,None,
,,,,14,0,14,0,,,,,,,,,29.955505292000453,30.016025375000027,922261,001,2023-03-18_09h50.32.869,simple VEP,2022.2.4,None,
,,,,15,0,15,0,,,,,,,,,30.016025375000027,30.080214583998895,922261,001,2023-03-18_09h50.32.869,simple VEP,2022.2.4,None,
,,,,16,0,16,0,,,,,,,,,30.080214583998895,30.147619209001277,922261,001,2023-03-18_09h50.32.869,simple VEP,2022.2.4,None,
,,,,17,0,17,0,,,,,,,,,30.147619209001277,30.221754958998645,922261,001,2023-03-18_09h50.32.869,simple VEP,2022.2.4,None,
,,,,18,0,18,0,,,,,,,,,30.221754958998645,30.281275541998184,922261,001,2023-03-18_09h50.32.869,simple VEP,2022.2.4,None,
,,,,19,0,19,0,,,,,,,,,30.281275541998184,30.348208125000383,922261,001,2023-03-18_09h50.32.869,simple VEP,2022.2.4,None,
,,,,20,0,20,0,,,,,,,,,30.348208125000383,30.406963334000466,922261,001,2023-03-18_09h50.32.869,simple VEP,2022.2.4,None,
,,,,21,0,21,0,,,,,,,,,30.406963334000466,30.47151191699959,922261,001,2023-03-18_09h50.32.869,simple VEP,2022.2.4,None,
,,,,22,0,22,0,,,,,,,,,30.47151191699959,30.53126991699901,922261,001,2023-03-18_09h50.32.869,simple VEP,2022.2.4,None,
,,,,23,0,23,0,,,,,,,,,30.53126991699901,30.59898670899929,922261,001,2023-03-18_09h50.32.869,simple VEP,2022.2.4,None,
,,,,24,0,24,0,,,,,,,,,30.59898670899929,30.6639658339991,922261,001,2023-03-18_09h50.32.869,simple VEP,2022.2.4,None,
,,,,25,0,25,0,,,,,,,,,30.6639658339991,30.73147987500124,922261,001,2023-03-18_09h50.32.869,simple VEP,2022.2.4,None,
,,,,26,0,26,0,,,,,,,,,30.73147987500124,30.791823542000202,922261,001,2023-03-18_09h50.32.869,simple VEP,2022.2.4,None,
,,,,27,0,27,0,,,,,,,,,30.791823542000202,30.855350999998336,922261,001,2023-03-18_09h50.32.869,simple VEP,2022.2.4,None,
,,,,28,0,28,0,,,,,,,,,30.855350999998336,30.913772833999246,922261,001,2023-03-18_09h50.32.869,simple VEP,2022.2.4,None,
,,,,29,0,29,0,,,,,,,,,30.913772833999246,30.972602458998153,922261,001,2023-03-18_09h50.32.869,simple VEP,2022.2.4,None,
,,,,30,0,30,0,,,,,,,,,30.972602458998153,31.030664083999,922261,001,2023-03-18_09h50.32.869,simple VEP,2022.2.4,None,
,,,,31,0,31,0,,,,,,,,,31.030664083999,31.097816208999575,922261,001,2023-03-18_09h50.32.869,simple VEP,2022.2.4,None,
,,,,32,0,32,0,,,,,,,,,31.097816208999575,31.167860792000283,922261,001,2023-03-18_09h50.32.869,simple VEP,2022.2.4,None,
,,,,33,0,33,0,,,,,,,,,31.167860792000283,31.230145249999623,922261,001,2023-03-18_09h50.32.869,simple VEP,2022.2.4,None,
,,,,34,0,34,0,,,,,,,,,31.230145249999623,31.297300292000727,922261,001,2023-03-18_09h50.32.869,simple VEP,2022.2.4,None,
,,,,35,0,35,0,,,,,,,,,31.297300292000727,31.355488749999495,922261,001,2023-03-18_09h50.32.869,simple VEP,2022.2.4,None,
,,,,36,0,36,0,,,,,,,,,31.355488749999495,31.411813083999732,922261,001,2023-03-18_09h50.32.869,simple VEP,2022.2.4,None,
,,,,37,0,37,0,,,,,,,,,31.411813083999732,31.47205208399828,922261,001,2023-03-18_09h50.32.869,simple VEP,2022.2.4,None,
,,,,38,0,38,0,,,,,,,,,31.47205208399828,31.531999709000956,922261,001,2023-03-18_09h50.32.869,simple VEP,2022.2.4,None,
,,,,39,0,39,0,,,,,,,,,31.531999709000956,31.59649620900018,922261,001,2023-03-18_09h50.32.869,simple VEP,2022.2.4,None,
,,,,40,0,40,0,,,,,,,,,31.59649620900018,31.65527312500126,922261,001,2023-03-18_09h50.32.869,simple VEP,2022.2.4,None,
,,,,41,0,41,0,,,,,,,,,31.65527312500126,31.714428791998216,922261,001,2023-03-18_09h50.32.869,simple VEP,2022.2.4,None,
,,,,42,0,42,0,,,,,,,,,31.714428791998216,31.781787167001312,922261,001,2023-03-18_09h50.32.869,simple VEP,2022.2.4,None,
,,,,43,0,43,0,,,,,,,,,31.781787167001312,31.84636141699957,922261,001,2023-03-18_09h50.32.869,simple VEP,2022.2.4,None,
,,,,44,0,44,0,,,,,,,,,31.84636141699957,31.91930720899836,922261,001,2023-03-18_09h50.32.869,simple VEP,2022.2.4,None,
,,,,45,0,45,0,,,,,,,,,31.91930720899836,31.980579791998025,922261,001,2023-03-18_09h50.32.869,simple VEP,2022.2.4,None,
,,,,46,0,46,0,,,,,,,,,31.980579791998025,32.0478506670006,922261,001,2023-03-18_09h50.32.869,simple VEP,2022.2.4,None,
,,,,47,0,47,0,,,,,,,,,32.0478506670006,32.11397674999898,922261,001,2023-03-18_09h50.32.869,simple VEP,2022.2.4,None,
,,,,48,0,48,0,,,,,,,,,32.11397674999898,32.18094779199964,922261,001,2023-03-18_09h50.32.869,simple VEP,2022.2.4,None,
,,,,49,0,49,0,,,,,,,,,32.18094779199964,32.247223292000854,922261,001,2023-03-18_09h50.32.869,simple VEP,2022.2.4,None,
,,,,50,0,50,0,,,,,,,,,32.247223292000854,32.30607966699972,922261,001,2023-03-18_09h50.32.869,simple VEP,2022.2.4,None,
,,,,51,0,51,0,,,,,,,,,32.30607966699972,32.36267295899961,922261,001,2023-03-18_09h50.32.869,simple VEP,2022.2.4,None,
,,,,52,0,52,0,,,,,,,,,32.36267295899961,32.422162709000986,922261,001,2023-03-18_09h50.32.869,simple VEP,2022.2.4,None,
,,,,53,0,53,0,,,,,,,,,32.422162709000986,32.47927783399791,922261,001,2023-03-18_09h50.32.869,simple VEP,2022.2.4,None,
,,,,54,0,54,0,,,,,,,,,32.47927783399791,32.538948000001255,922261,001,2023-03-18_09h50.32.869,simple VEP,2022.2.4,None,
,,,,55,0,55,0,,,,,,,,,32.538948000001255,32.59655708399805,922261,001,2023-03-18_09h50.32.869,simple VEP,2022.2.4,None,
,,,,56,0,56,0,,,,,,,,,32.59655708399805,32.663483249998535,922261,001,2023-03-18_09h50.32.869,simple VEP,2022.2.4,None,
,,,,57,0,57,0,,,,,,,,,32.663483249998535,32.73105029200087,922261,001,2023-03-18_09h50.32.869,simple VEP,2022.2.4,None,
,,,,58,0,58,0,,,,,,,,,32.73105029200087,32.798481208999874,922261,001,2023-03-18_09h50.32.869,simple VEP,2022.2.4,None,
,,,,59,0,59,0,,,,,,,,,32.798481208999874,32.86470624999856,922261,001,2023-03-18_09h50.32.869,simple VEP,2022.2.4,None,
,,,,60,0,60,0,,,,,,,,,32.86470624999856,32.92911283400099,922261,001,2023-03-18_09h50.32.869,simple VEP,2022.2.4,None,
,,,,61,0,61,0,,,,,,,,,32.92911283400099,32.99078404199827,922261,001,2023-03-18_09h50.32.869,simple VEP,2022.2.4,None,
,,,,62,0,62,0,,,,,,,,,32.99078404199827,33.05545612499918,922261,001,2023-03-18_09h50.32.869,simple VEP,2022.2.4,None,
,,,,63,0,63,0,,,,,,,,,33.05545612499918,33.114823874999274,922261,001,2023-03-18_09h50.32.869,simple VEP,2022.2.4,None,
,,,,64,0,64,0,,,,,,,,,33.114823874999274,33.18180504200063,922261,001,2023-03-18_09h50.32.869,simple VEP,2022.2.4,None,
,,,,65,0,65,0,,,,,,,,,33.18180504200063,33.247272124997835,922261,001,2023-03-18_09h50.32.869,simple VEP,2022.2.4,None,
,,,,66,0,66,0,,,,,,,,,33.247272124997835,33.314811249998456,922261,001,2023-03-18_09h50.32.869,simple VEP,2022.2.4,None,
,,,,67,0,67,0,,,,,,,,,33.314811249998456,33.38096341699929,922261,001,2023-03-18_09h50.32.869,simple VEP,2022.2.4,None,
,,,,68,0,68,0,,,,,,,,,33.38096341699929,33.44784691699897,922261,001,2023-03-18_09h50.32.869,simple VEP,2022.2.4,None,
,,,,69,0,69,0,,,,,,,,,33.44784691699897,33.51426783399802,922261,001,2023-03-18_09h50.32.869,simple VEP,2022.2.4,None,
,,,,70,0,70,0,,,,,,,,,33.51426783399802,33.580462958998396,922261,001,2023-03-18_09h50.32.869,simple VEP,2022.2.4,None,
,,,,71,0,71,0,,,,,,,,,33.580462958998396,33.64674841699889,922261,001,2023-03-18_09h50.32.869,simple VEP,2022.2.4,None,
,,,,72,0,72,0,,,,,,,,,33.64674841699889,33.7145277089985,922261,001,2023-03-18_09h50.32.869,simple VEP,2022.2.4,None,
,,,,73,0,73,0,,,,,,,,,33.7145277089985,33.77210700000069,922261,001,2023-03-18_09h50.32.869,simple VEP,2022.2.4,None,
,,,,74,0,74,0,,,,,,,,,33.77210700000069,33.830290375000914,922261,001,2023-03-18_09h50.32.869,simple VEP,2022.2.4,None,
,,,,75,0,75,0,,,,,,,,,33.830290375000914,33.89784529199824,922261,001,2023-03-18_09h50.32.869,simple VEP,2022.2.4,None,
,,,,76,0,76,0,,,,,,,,,33.89784529199824,33.96433683400028,922261,001,2023-03-18_09h50.32.869,simple VEP,2022.2.4,None,
,,,,77,0,77,0,,,,,,,,,33.96433683400028,34.03106391699839,922261,001,2023-03-18_09h50.32.869,simple VEP,2022.2.4,None,
,,,,78,0,78,0,,,,,,,,,34.03106391699839,34.08984799999962,922261,001,2023-03-18_09h50.32.869,simple VEP,2022.2.4,None,
,,,,79,0,79,0,,,,,,,,,34.08984799999962,34.155122249998385,922261,001,2023-03-18_09h50.32.869,simple VEP,2022.2.4,None,
,,,,80,0,80,0,,,,,,,,,34.155122249998385,34.21524249999857,922261,001,2023-03-18_09h50.32.869,simple VEP,2022.2.4,None,
,,,,81,0,81,0,,,,,,,,,34.21524249999857,34.2830353749996,922261,001,2023-03-18_09h50.32.869,simple VEP,2022.2.4,None,
,,,,82,0,82,0,,,,,,,,,34.2830353749996,34.347539499998675,922261,001,2023-03-18_09h50.32.869,simple VEP,2022.2.4,None,
,,,,83,0,83,0,,,,,,,,,34.347539499998675,34.4060591669986,922261,001,2023-03-18_09h50.32.869,simple VEP,2022.2.4,None,
,,,,84,0,84,0,,,,,,,,,34.4060591669986,34.465178833997925,922261,001,2023-03-18_09h50.32.869,simple VEP,2022.2.4,None,
,,,,85,0,85,0,,,,,,,,,34.465178833997925,34.53023229199971,922261,001,2023-03-18_09h50.32.869,simple VEP,2022.2.4,None,
,,,,86,0,86,0,,,,,,,,,34.53023229199971,34.5886873749987,922261,001,2023-03-18_09h50.32.869,simple VEP,2022.2.4,None,
,,,,87,0,87,0,,,,,,,,,34.5886873749987,34.64822370899856,922261,001,2023-03-18_09h50.32.869,simple VEP,2022.2.4,None,
,,,,88,0,88,0,,,,,,,,,34.64822370899856,34.71534929200061,922261,001,2023-03-18_09h50.32.869,simple VEP,2022.2.4,None,
,,,,89,0,89,0,,,,,,,,,34.71534929200061,34.78066854200006,922261,001,2023-03-18_09h50.32.869,simple VEP,2022.2.4,None,
,,,,90,0,90,0,,,,,,,,,34.78066854200006,34.848137708999275,922261,001,2023-03-18_09h50.32.869,simple VEP,2022.2.4,None,
,,,,91,0,91,0,,,,,,,,,34.848137708999275,34.914925875000336,922261,001,2023-03-18_09h50.32.869,simple VEP,2022.2.4,None,
,,,,92,0,92,0,,,,,,,,,34.914925875000336,34.98174904199914,922261,001,2023-03-18_09h50.32.869,simple VEP,2022.2.4,None,
,,,,93,0,93,0,,,,,,,,,34.98174904199914,35.047448249999434,922261,001,2023-03-18_09h50.32.869,simple VEP,2022.2.4,None,
,,,,94,0,94,0,,,,,,,,,35.047448249999434,35.105759292000585,922261,001,2023-03-18_09h50.32.869,simple VEP,2022.2.4,None,
,,,,95,0,95,0,,,,,,,,,35.105759292000585,35.163538249998965,922261,001,2023-03-18_09h50.32.869,simple VEP,2022.2.4,None,
,,,,96,0,96,0,,,,,,,,,35.163538249998965,35.234286916998826,922261,001,2023-03-18_09h50.32.869,simple VEP,2022.2.4,None,
,,,,97,0,97,0,,,,,,,,,35.234286916998826,35.29805487499834,922261,001,2023-03-18_09h50.32.869,simple VEP,2022.2.4,None,
,,,,98,0,98,0,,,,,,,,,35.29805487499834,35.364013416998205,922261,001,2023-03-18_09h50.32.869,simple VEP,2022.2.4,None,
,,,,99,0,99,0,,,,,,,,,35.364013416998205,35.42976966700007,922261,001,2023-03-18_09h50.32.869,simple VEP,2022.2.4,None,
,,,,100,0,100,0,,,,,,,,,35.42976966700007,35.48890187500001,922261,001,2023-03-18_09h50.32.869,simple VEP,2022.2.4,None,
,,,,101,0,101,0,,,,,,,,,35.48890187500001,35.54651891699905,922261,001,2023-03-18_09h50.32.869,simple VEP,2022.2.4,None,
,,,,102,0,102,0,,,,,,,,,35.54651891699905,35.612387791999936,922261,001,2023-03-18_09h50.32.869,simple VEP,2022.2.4,None,
,,,,103,0,103,0,,,,,,,,,35.612387791999936,35.67905795899787,922261,001,2023-03-18_09h50.32.869,simple VEP,2022.2.4,None,
,,,,104,0,104,0,,,,,,,,,35.67905795899787,35.73917475000053,922261,001,2023-03-18_09h50.32.869,simple VEP,2022.2.4,None,
,,,,105,0,105,0,,,,,,,,,35.73917475000053,35.79580991699913,922261,001,2023-03-18_09h50.32.869,simple VEP,2022.2.4,None,
,,,,106,0,106,0,,,,,,,,,35.79580991699913,35.85560616699877,922261,001,2023-03-18_09h50.32.869,simple VEP,2022.2.4,None,
,,,,107,0,107,0,,,,,,,,,35.85560616699877,35.91243887499877,922261,001,2023-03-18_09h50.32.869,simple VEP,2022.2.4,None,
,,,,108,0,108,0,,,,,,,,,35.91243887499877,35.98214666700005,922261,001,2023-03-18_09h50.32.869,simple VEP,2022.2.4,None,
,,,,109,0,109,0,,,,,,,,,35.98214666700005,36.04776574999778,922261,001,2023-03-18_09h50.32.869,simple VEP,2022.2.4,None,
,,,,110,0,110,0,,,,,,,,,36.04776574999778,36.11541445900002,922261,001,2023-03-18_09h50.32.869,simple VEP,2022.2.4,None,
,,,,111,0,111,0,,,,,,,,,36.11541445900002,36.181942416998936,922261,001,2023-03-18_09h50.32.869,simple VEP,2022.2.4,None,
,,,,112,0,112,0,,,,,,,,,36.181942416998936,36.24855649999881,922261,001,2023-03-18_09h50.32.869,simple VEP,2022.2.4,None,
,,,,113,0,113,0,,,,,,,,,36.24855649999881,36.30715108399818,922261,001,2023-03-18_09h50.32.869,simple VEP,2022.2.4,None,
,,,,114,0,114,0,,,,,,,,,36.30715108399818,36.37196587499784,922261,001,2023-03-18_09h50.32.869,simple VEP,2022.2.4,None,
,,,,115,0,115,0,,,,,,,,,36.37196587499784,36.42870200000107,922261,001,2023-03-18_09h50.32.869,simple VEP,2022.2.4,None,
,,,,116,0,116,0,,,,,,,,,36.42870200000107,36.488972209001076,922261,001,2023-03-18_09h50.32.869,simple VEP,2022.2.4,None,
,,,,117,0,117,0,,,,,,,,,36.488972209001076,36.54579183399983,922261,001,2023-03-18_09h50.32.869,simple VEP,2022.2.4,None,
,,,,118,0,118,0,,,,,,,,,36.54579183399983,36.60547183399831,922261,001,2023-03-18_09h50.32.869,simple VEP,2022.2.4,None,
,,,,119,0,119,0,,,,,,,,,36.60547183399831,36.663557084000786,922261,001,2023-03-18_09h50.32.869,simple VEP,2022.2.4,None,
,,,,120,0,120,0,,,,,,,,,36.663557084000786,36.72938295899803,922261,001,2023-03-18_09h50.32.869,simple VEP,2022.2.4,None,
,,,,121,0,121,0,,,,,,,,,36.72938295899803,36.797365999998874,922261,001,2023-03-18_09h50.32.869,simple VEP,2022.2.4,None,
,,,,122,0,122,0,,,,,,,,,36.797365999998874,36.865531291998195,922261,001,2023-03-18_09h50.32.869,simple VEP,2022.2.4,None,
,,,,123,0,123,0,,,,,,,,,36.865531291998195,36.93040275000021,922261,001,2023-03-18_09h50.32.869,simple VEP,2022.2.4,None,
,,,,124,0,124,0,,,,,,,,,36.93040275000021,36.996993500000826,922261,001,2023-03-18_09h50.32.869,simple VEP,2022.2.4,None,
,,,,125,0,125,0,,,,,,,,,36.996993500000826,37.058344583998405,922261,001,2023-03-18_09h50.32.869,simple VEP,2022.2.4,None,
,,,,126,0,126,0,,,,,,,,,37.058344583998405,37.12223145900134,922261,001,2023-03-18_09h50.32.869,simple VEP,2022.2.4,None,
,,,,127,0,127,0,,,,,,,,,37.12223145900134,37.178170374998444,922261,001,2023-03-18_09h50.32.869,simple VEP,2022.2.4,None,
,,,,128,0,128,0,,,,,,,,,37.178170374998444,37.23900779199903,922261,001,2023-03-18_09h50.32.869,simple VEP,2022.2.4,None,
,,,,129,0,129,0,,,,,,,,,37.23900779199903,37.29634916699797,922261,001,2023-03-18_09h50.32.869,simple VEP,2022.2.4,None,
,,,,130,0,130,0,,,,,,,,,37.29634916699797,37.35562225000103,922261,001,2023-03-18_09h50.32.869,simple VEP,2022.2.4,None,
,,,,131,0,131,0,,,,,,,,,37.35562225000103,37.414083916999516,922261,001,2023-03-18_09h50.32.869,simple VEP,2022.2.4,None,
,,,,132,0,132,0,,,,,,,,,37.414083916999516,37.47208633400078,922261,001,2023-03-18_09h50.32.869,simple VEP,2022.2.4,None,
,,,,133,0,133,0,,,,,,,,,37.47208633400078,37.53017762499803,922261,001,2023-03-18_09h50.32.869,simple VEP,2022.2.4,None,
,,,,134,0,134,0,,,,,,,,,37.53017762499803,37.597294333998434,922261,001,2023-03-18_09h50.32.869,simple VEP,2022.2.4,None,
,,,,135,0,135,0,,,,,,,,,37.597294333998434,37.66569474999778,922261,001,2023-03-18_09h50.32.869,simple VEP,2022.2.4,None,
,,,,136,0,136,0,,,,,,,,,37.66569474999778,37.73131241699957,922261,001,2023-03-18_09h50.32.869,simple VEP,2022.2.4,None,
,,,,137,0,137,0,,,,,,,,,37.73131241699957,37.79801229199802,922261,001,2023-03-18_09h50.32.869,simple VEP,2022.2.4,None,
,,,,138,0,138,0,,,,,,,,,37.79801229199802,37.86469537499943,922261,001,2023-03-18_09h50.32.869,simple VEP,2022.2.4,None,
,,,,139,0,139,0,,,,,,,,,37.86469537499943,37.93142454199915,922261,001,2023-03-18_09h50.32.869,simple VEP,2022.2.4,None,
,,,,140,0,140,0,,,,,,,,,37.93142454199915,37.99728795899864,922261,001,2023-03-18_09h50.32.869,simple VEP,2022.2.4,None,
,,,,141,0,141,0,,,,,,,,,37.99728795899864,38.062881583999115,922261,001,2023-03-18_09h50.32.869,simple VEP,2022.2.4,None,
,,,,142,0,142,0,,,,,,,,,38.062881583999115,38.13902879200032,922261,001,2023-03-18_09h50.32.869,simple VEP,2022.2.4,None,
,,,,143,0,143,0,,,,,,,,,38.13902879200032,38.198019499999646,922261,001,2023-03-18_09h50.32.869,simple VEP,2022.2.4,None,
,,,,144,0,144,0,,,,,,,,,38.198019499999646,38.263699374998396,922261,001,2023-03-18_09h50.32.869,simple VEP,2022.2.4,None,
,,,,145,0,145,0,,,,,,,,,38.263699374998396,38.33078987499903,922261,001,2023-03-18_09h50.32.869,simple VEP,2022.2.4,None,
,,,,146,0,146,0,,,,,,,,,38.33078987499903,38.39760016699802,922261,001,2023-03-18_09h50.32.869,simple VEP,2022.2.4,None,
,,,,147,0,147,0,,,,,,,,,38.39760016699802,38.46143391700025,922261,001,2023-03-18_09h50.32.869,simple VEP,2022.2.4,None,
,,,,148,0,148,0,,,,,,,,,38.46143391700025,38.52185245899818,922261,001,2023-03-18_09h50.32.869,simple VEP,2022.2.4,None,
,,,,149,0,149,0,,,,,,,,,38.52185245899818,38.58035208399815,922261,001,2023-03-18_09h50.32.869,simple VEP,2022.2.4,None,
,,,,150,0,150,0,,,,,,,,,38.58035208399815,38.64794624999922,922261,001,2023-03-18_09h50.32.869,simple VEP,2022.2.4,None,
,,,,151,0,151,0,,,,,,,,,38.64794624999922,38.714334584001335,922261,001,2023-03-18_09h50.32.869,simple VEP,2022.2.4,None,
,,,,152,0,152,0,,,,,,,,,38.714334584001335,38.781385166999826,922261,001,2023-03-18_09h50.32.869,simple VEP,2022.2.4,None,
,,,,153,0,153,0,,,,,,,,,38.781385166999826,38.8415845419986,922261,001,2023-03-18_09h50.32.869,simple VEP,2022.2.4,None,
,,,,154,0,154,0,,,,,,,,,38.8415845419986,38.90553483400072,922261,001,2023-03-18_09h50.32.869,simple VEP,2022.2.4,None,
,,,,155,0,155,0,,,,,,,,,38.90553483400072,38.96311645899914,922261,001,2023-03-18_09h50.32.869,simple VEP,2022.2.4,None,
,,,,156,0,156,0,,,,,,,,,38.96311645899914,39.02350554199802,922261,001,2023-03-18_09h50.32.869,simple VEP,2022.2.4,None,
,,,,157,0,157,0,,,,,,,,,39.02350554199802,39.08906770899921,922261,001,2023-03-18_09h50.32.869,simple VEP,2022.2.4,None,
,,,,158,0,158,0,,,,,,,,,39.08906770899921,39.14555462499993,922261,001,2023-03-18_09h50.32.869,simple VEP,2022.2.4,None,
,,,,159,0,159,0,,,,,,,,,39.14555462499993,39.20592741699875,922261,001,2023-03-18_09h50.32.869,simple VEP,2022.2.4,None,
,,,,160,0,160,0,,,,,,,,,39.20592741699875,39.2726654170001,922261,001,2023-03-18_09h50.32.869,simple VEP,2022.2.4,None,
,,,,161,0,161,0,,,,,,,,,39.2726654170001,39.329003041999385,922261,001,2023-03-18_09h50.32.869,simple VEP,2022.2.4,None,
,,,,162,0,162,0,,,,,,,,,39.329003041999385,39.38788479199866,922261,001,2023-03-18_09h50.32.869,simple VEP,2022.2.4,None,
,,,,163,0,163,0,,,,,,,,,39.38788479199866,39.44909191699844,922261,001,2023-03-18_09h50.32.869,simple VEP,2022.2.4,None,
,,,,164,0,164,0,,,,,,,,,39.44909191699844,39.5148894169979,922261,001,2023-03-18_09h50.32.869,simple VEP,2022.2.4,None,
,,,,165,0,165,0,,,,,,,,,39.5148894169979,39.58145074999993,922261,001,2023-03-18_09h50.32.869,simple VEP,2022.2.4,None,
,,,,166,0,166,0,,,,,,,,,39.58145074999993,39.64563329199882,922261,001,2023-03-18_09h50.32.869,simple VEP,2022.2.4,None,
,,,,167,0,167,0,,,,,,,,,39.64563329199882,39.70520887499879,922261,001,2023-03-18_09h50.32.869,simple VEP,2022.2.4,None,
,,,,168,0,168,0,,,,,,,,,39.70520887499879,39.7634309999994,922261,001,2023-03-18_09h50.32.869,simple VEP,2022.2.4,None,
,,,,169,0,169,0,,,,,,,,,39.7634309999994,39.83052966700052,922261,001,2023-03-18_09h50.32.869,simple VEP,2022.2.4,None,
,,,,170,0,170,0,,,,,,,,,39.83052966700052,39.88916175000122,922261,001,2023-03-18_09h50.32.869,simple VEP,2022.2.4,None,
,,,,171,0,171,0,,,,,,,,,39.88916175000122,39.9485210419989,922261,001,2023-03-18_09h50.32.869,simple VEP,2022.2.4,None,
,,,,172,0,172,0,,,,,,,,,39.9485210419989,40.006018833999406,922261,001,2023-03-18_09h50.32.869,simple VEP,2022.2.4,None,
,,,,173,0,173,0,,,,,,,,,40.006018833999406,40.064224041998386,922261,001,2023-03-18_09h50.32.869,simple VEP,2022.2.4,None,
,,,,174,0,174,0,,,,,,,,,40.064224041998386,40.13038554200102,922261,001,2023-03-18_09h50.32.869,simple VEP,2022.2.4,None,
,,,,175,0,175,0,,,,,,,,,40.13038554200102,40.19806529199923,922261,001,2023-03-18_09h50.32.869,simple VEP,2022.2.4,None,
,,,,176,0,176,0,,,,,,,,,40.19806529199923,40.26531354200051,922261,001,2023-03-18_09h50.32.869,simple VEP,2022.2.4,None,
,,,,177,0,177,0,,,,,,,,,40.26531354200051,40.33394608399976,922261,001,2023-03-18_09h50.32.869,simple VEP,2022.2.4,None,
,,,,178,0,178,0,,,,,,,,,40.33394608399976,40.39899116699962,922261,001,2023-03-18_09h50.32.869,simple VEP,2022.2.4,None,
,,,,179,0,179,0,,,,,,,,,40.39899116699962,40.464419500000076,922261,001,2023-03-18_09h50.32.869,simple VEP,2022.2.4,None,
,,,,180,0,180,0,,,,,,,,,40.464419500000076,40.53085699999792,922261,001,2023-03-18_09h50.32.869,simple VEP,2022.2.4,None,
,,,,181,0,181,0,,,,,,,,,40.53085699999792,40.59799637499964,922261,001,2023-03-18_09h50.32.869,simple VEP,2022.2.4,None,
,,,,182,0,182,0,,,,,,,,,40.59799637499964,40.662984167000104,922261,001,2023-03-18_09h50.32.869,simple VEP,2022.2.4,None,
,,,,183,0,183,0,,,,,,,,,40.662984167000104,40.73365674999877,922261,001,2023-03-18_09h50.32.869,simple VEP,2022.2.4,None,
,,,,184,0,184,0,,,,,,,,,40.73365674999877,40.79850658400028,922261,001,2023-03-18_09h50.32.869,simple VEP,2022.2.4,None,
,,,,185,0,185,0,,,,,,,,,40.79850658400028,40.86443008399874,922261,001,2023-03-18_09h50.32.869,simple VEP,2022.2.4,None,
,,,,186,0,186,0,,,,,,,,,40.86443008399874,40.93167791700034,922261,001,2023-03-18_09h50.32.869,simple VEP,2022.2.4,None,
,,,,187,0,187,0,,,,,,,,,40.93167791700034,40.99676724999881,922261,001,2023-03-18_09h50.32.869,simple VEP,2022.2.4,None,
,,,,188,0,188,0,,,,,,,,,40.99676724999881,41.06376058399837,922261,001,2023-03-18_09h50.32.869,simple VEP,2022.2.4,None,
,,,,189,0,189,0,,,,,,,,,41.06376058399837,41.13159141700089,922261,001,2023-03-18_09h50.32.869,simple VEP,2022.2.4,None,
,,,,190,0,190,0,,,,,,,,,41.13159141700089,41.19796883399977,922261,001,2023-03-18_09h50.32.869,simple VEP,2022.2.4,None,
,,,,191,0,191,0,,,,,,,,,41.19796883399977,41.30571041700023,922261,001,2023-03-18_09h50.32.869,simple VEP,2022.2.4,None,
,,,,192,0,192,0,,,,,,,,,41.30571041700023,41.3673200000012,922261,001,2023-03-18_09h50.32.869,simple VEP,2022.2.4,None,
,,,,193,0,193,0,,,,,,,,,41.3673200000012,41.43150691700066,922261,001,2023-03-18_09h50.32.869,simple VEP,2022.2.4,None,
,,,,194,0,194,0,,,,,,,,,41.43150691700066,41.49831962499957,922261,001,2023-03-18_09h50.32.869,simple VEP,2022.2.4,None,
,,,,195,0,195,0,,,,,,,,,41.49831962499957,41.56403266699999,922261,001,2023-03-18_09h50.32.869,simple VEP,2022.2.4,None,
,,,,196,0,196,0,,,,,,,,,41.56403266699999,41.630835416999616,922261,001,2023-03-18_09h50.32.869,simple VEP,2022.2.4,None,
,,,,197,0,197,0,,,,,,,,,41.630835416999616,41.697985541999515,922261,001,2023-03-18_09h50.32.869,simple VEP,2022.2.4,None,
,,,,198,0,198,0,,,,,,,,,41.697985541999515,41.763575500001025,922261,001,2023-03-18_09h50.32.869,simple VEP,2022.2.4,None,
,,,,199,0,199,0,,,,,,,,,41.763575500001025,41.83063816700087,922261,001,2023-03-18_09h50.32.869,simple VEP,2022.2.4,None,
,,,,200,0,200,0,,,,,,,,,41.83063816700087,41.89700033400004,922261,001,2023-03-18_09h50.32.869,simple VEP,2022.2.4,None,
,,,,201,0,201,0,,,,,,,,,41.89700033400004,41.96494354199967,922261,001,2023-03-18_09h50.32.869,simple VEP,2022.2.4,None,
,,,,202,0,202,0,,,,,,,,,41.96494354199967,42.03001345899975,922261,001,2023-03-18_09h50.32.869,simple VEP,2022.2.4,None,
,,,,203,0,203,0,,,,,,,,,42.03001345899975,42.09692570900006,922261,001,2023-03-18_09h50.32.869,simple VEP,2022.2.4,None,
,,,,204,0,204,0,,,,,,,,,42.09692570900006,42.16368508400046,922261,001,2023-03-18_09h50.32.869,simple VEP,2022.2.4,None,
,,,,205,0,205,0,,,,,,,,,42.16368508400046,42.23071608399914,922261,001,2023-03-18_09h50.32.869,simple VEP,2022.2.4,None,
,,,,206,0,206,0,,,,,,,,,42.23071608399914,42.2976618749999,922261,001,2023-03-18_09h50.32.869,simple VEP,2022.2.4,None,
,,,,207,0,207,0,,,,,,,,,42.2976618749999,42.364236958997935,922261,001,2023-03-18_09h50.32.869,simple VEP,2022.2.4,None,
,,,,208,0,208,0,,,,,,,,,42.364236958997935,42.42340562499885,922261,001,2023-03-18_09h50.32.869,simple VEP,2022.2.4,None,
,,,,209,0,209,0,,,,,,,,,42.42340562499885,42.48858795900014,922261,001,2023-03-18_09h50.32.869,simple VEP,2022.2.4,None,
,,,,210,0,210,0,,,,,,,,,42.48858795900014,42.54790425000101,922261,001,2023-03-18_09h50.32.869,simple VEP,2022.2.4,None,
,,,,211,0,211,0,,,,,,,,,42.54790425000101,42.615138291999756,922261,001,2023-03-18_09h50.32.869,simple VEP,2022.2.4,None,
,,,,212,0,212,0,,,,,,,,,42.615138291999756,42.68169541699899,922261,001,2023-03-18_09h50.32.869,simple VEP,2022.2.4,None,
,,,,213,0,213,0,,,,,,,,,42.68169541699899,42.74790916699931,922261,001,2023-03-18_09h50.32.869,simple VEP,2022.2.4,None,
,,,,214,0,214,0,,,,,,,,,42.74790916699931,42.81314458400084,922261,001,2023-03-18_09h50.32.869,simple VEP,2022.2.4,None,
,,,,215,0,215,0,,,,,,,,,42.81314458400084,42.88177166699825,922261,001,2023-03-18_09h50.32.869,simple VEP,2022.2.4,None,
,,,,216,0,216,0,,,,,,,,,42.88177166699825,42.94699841699912,922261,001,2023-03-18_09h50.32.869,simple VEP,2022.2.4,None,
,,,,217,0,217,0,,,,,,,,,42.94699841699912,43.014071624998905,922261,001,2023-03-18_09h50.32.869,simple VEP,2022.2.4,None,
,,,,218,0,218,0,,,,,,,,,43.014071624998905,43.080150292000326,922261,001,2023-03-18_09h50.32.869,simple VEP,2022.2.4,None,
,,,,219,0,219,0,,,,,,,,,43.080150292000326,43.156095874997845,922261,001,2023-03-18_09h50.32.869,simple VEP,2022.2.4,None,
,,,,220,0,220,0,,,,,,,,,43.156095874997845,43.21490291699956,922261,001,2023-03-18_09h50.32.869,simple VEP,2022.2.4,None,
,,,,221,0,221,0,,,,,,,,,43.21490291699956,43.28193137500057,922261,001,2023-03-18_09h50.32.869,simple VEP,2022.2.4,None,
,,,,222,0,222,0,,,,,,,,,43.28193137500057,43.34825170899785,922261,001,2023-03-18_09h50.32.869,simple VEP,2022.2.4,None,
,,,,223,0,223,0,,,,,,,,,43.34825170899785,43.41317450000133,922261,001,2023-03-18_09h50.32.869,simple VEP,2022.2.4,None,
,,,,224,0,224,0,,,,,,,,,43.41317450000133,43.47307350000119,922261,001,2023-03-18_09h50.32.869,simple VEP,2022.2.4,None,
,,,,225,0,225,0,,,,,,,,,43.47307350000119,43.52981316699879,922261,001,2023-03-18_09h50.32.869,simple VEP,2022.2.4,None,
,,,,226,0,226,0,,,,,,,,,43.52981316699879,43.58884145900083,922261,001,2023-03-18_09h50.32.869,simple VEP,2022.2.4,None,
,,,,227,0,227,0,,,,,,,,,43.58884145900083,43.647203291999176,922261,001,2023-03-18_09h50.32.869,simple VEP,2022.2.4,None,
,,,,228,0,228,0,,,,,,,,,43.647203291999176,43.70568566699876,922261,001,2023-03-18_09h50.32.869,simple VEP,2022.2.4,None,
,,,,229,0,229,0,,,,,,,,,43.70568566699876,43.763156749999325,922261,001,2023-03-18_09h50.32.869,simple VEP,2022.2.4,None,
,,,,230,0,230,0,,,,,,,,,43.763156749999325,43.82437937500072,922261,001,2023-03-18_09h50.32.869,simple VEP,2022.2.4,None,
,,,,231,0,231,0,,,,,,,,,43.82437937500072,43.888843791999534,922261,001,2023-03-18_09h50.32.869,simple VEP,2022.2.4,None,
,,,,232,0,232,0,,,,,,,,,43.888843791999534,43.94753545899948,922261,001,2023-03-18_09h50.32.869,simple VEP,2022.2.4,None,
,,,,233,0,233,0,,,,,,,,,43.94753545899948,44.01430908399925,922261,001,2023-03-18_09h50.32.869,simple VEP,2022.2.4,None,
,,,,234,0,234,0,,,,,,,,,44.01430908399925,44.082432625000365,922261,001,2023-03-18_09h50.32.869,simple VEP,2022.2.4,None,
,,,,235,0,235,0,,,,,,,,,44.082432625000365,44.14753079200091,922261,001,2023-03-18_09h50.32.869,simple VEP,2022.2.4,None,
,,,,236,0,236,0,,,,,,,,,44.14753079200091,44.21529108399773,922261,001,2023-03-18_09h50.32.869,simple VEP,2022.2.4,None,
,,,,237,0,237,0,,,,,,,,,44.21529108399773,44.28119966699887,922261,001,2023-03-18_09h50.32.869,simple VEP,2022.2.4,None,
,,,,238,0,238,0,,,,,,,,,44.28119966699887,44.35610699999961,922261,001,2023-03-18_09h50.32.869,simple VEP,2022.2.4,None,
,,,,239,0,239,0,,,,,,,,,44.35610699999961,44.41424720899886,922261,001,2023-03-18_09h50.32.869,simple VEP,2022.2.4,None,
,,,,240,0,240,0,,,,,,,,,44.41424720899886,44.47225587499997,922261,001,2023-03-18_09h50.32.869,simple VEP,2022.2.4,None,
,,,,241,0,241,0,,,,,,,,,44.47225587499997,44.52948062499854,922261,001,2023-03-18_09h50.32.869,simple VEP,2022.2.4,None,
,,,,242,0,242,0,,,,,,,,,44.52948062499854,44.58898916700127,922261,001,2023-03-18_09h50.32.869,simple VEP,2022.2.4,None,
,,,,243,0,243,0,,,,,,,,,44.58898916700127,44.64821433399993,922261,001,2023-03-18_09h50.32.869,simple VEP,2022.2.4,None,
,,,,244,0,244,0,,,,,,,,,44.64821433399993,44.71433962499941,922261,001,2023-03-18_09h50.32.869,simple VEP,2022.2.4,None,
,,,,245,0,245,0,,,,,,,,,44.71433962499941,44.78111070899831,922261,001,2023-03-18_09h50.32.869,simple VEP,2022.2.4,None,
,,,,246,0,246,0,,,,,,,,,44.78111070899831,44.85067483400053,922261,001,2023-03-18_09h50.32.869,simple VEP,2022.2.4,None,
,,,,247,0,247,0,,,,,,,,,44.85067483400053,44.915287374999025,922261,001,2023-03-18_09h50.32.869,simple VEP,2022.2.4,None,
,,,,248,0,248,0,,,,,,,,,44.915287374999025,44.97939425000004,922261,001,2023-03-18_09h50.32.869,simple VEP,2022.2.4,None,
,,,,249,0,249,0,,,,,,,,,44.97939425000004,45.03879925000001,922261,001,2023-03-18_09h50.32.869,simple VEP,2022.2.4,None,
,,,,250,0,250,0,,,,,,,,,45.03879925000001,45.09837954199975,922261,001,2023-03-18_09h50.32.869,simple VEP,2022.2.4,None,
,,,,251,0,251,0,,,,,,,,,45.09837954199975,45.16455883399976,922261,001,2023-03-18_09h50.32.869,simple VEP,2022.2.4,None,
,,,,252,0,252,0,,,,,,,,,45.16455883399976,45.232454417000554,922261,001,2023-03-18_09h50.32.869,simple VEP,2022.2.4,None,
,,,,253,0,253,0,,,,,,,,,45.232454417000554,45.296804834000795,922261,001,2023-03-18_09h50.32.869,simple VEP,2022.2.4,None,
,,,,254,0,254,0,,,,,,,,,45.296804834000795,45.35538287500094,922261,001,2023-03-18_09h50.32.869,simple VEP,2022.2.4,None,
,,,,255,0,255,0,,,,,,,,,45.35538287500094,45.41582641700006,922261,001,2023-03-18_09h50.32.869,simple VEP,2022.2.4,None,
,,,,256,0,256,0,,,,,,,,,45.41582641700006,45.47979454199958,922261,001,2023-03-18_09h50.32.869,simple VEP,2022.2.4,None,
,,,,257,0,257,0,,,,,,,,,45.47979454199958,45.54667362499822,922261,001,2023-03-18_09h50.32.869,simple VEP,2022.2.4,None,
,,,,258,0,258,0,,,,,,,,,45.54667362499822,45.604840666997916,922261,001,2023-03-18_09h50.32.869,simple VEP,2022.2.4,None,
,,,,259,0,259,0,,,,,,,,,45.604840666997916,45.66410804200132,922261,001,2023-03-18_09h50.32.869,simple VEP,2022.2.4,None,
,,,,260,0,260,0,,,,,,,,,45.66410804200132,45.731026292000024,922261,001,2023-03-18_09h50.32.869,simple VEP,2022.2.4,None,
,,,,261,0,261,0,,,,,,,,,45.731026292000024,45.79781791699861,922261,001,2023-03-18_09h50.32.869,simple VEP,2022.2.4,None,
,,,,262,0,262,0,,,,,,,,,45.79781791699861,45.86372916699838,922261,001,2023-03-18_09h50.32.869,simple VEP,2022.2.4,None,
,,,,263,0,263,0,,,,,,,,,45.86372916699838,45.93109175000063,922261,001,2023-03-18_09h50.32.869,simple VEP,2022.2.4,None,
,,,,264,0,264,0,,,,,,,,,45.93109175000063,45.998321916998975,922261,001,2023-03-18_09h50.32.869,simple VEP,2022.2.4,None,
,,,,265,0,265,0,,,,,,,,,45.998321916998975,46.06397883400132,922261,001,2023-03-18_09h50.32.869,simple VEP,2022.2.4,None,
,,,,266,0,266,0,,,,,,,,,46.06397883400132,46.12143274999835,922261,001,2023-03-18_09h50.32.869,simple VEP,2022.2.4,None,
,,,,267,0,267,0,,,,,,,,,46.12143274999835,46.18175437500031,922261,001,2023-03-18_09h50.32.869,simple VEP,2022.2.4,None,
,,,,268,0,268,0,,,,,,,,,46.18175437500031,46.2453792089982,922261,001,2023-03-18_09h50.32.869,simple VEP,2022.2.4,None,
,,,,269,0,269,0,,,,,,,,,46.2453792089982,46.30595624999842,922261,001,2023-03-18_09h50.32.869,simple VEP,2022.2.4,None,
,,,,270,0,270,0,,,,,,,,,46.30595624999842,46.363177167000686,922261,001,2023-03-18_09h50.32.869,simple VEP,2022.2.4,None,
,,,,271,0,271,0,,,,,,,,,46.363177167000686,46.42474558399772,922261,001,2023-03-18_09h50.32.869,simple VEP,2022.2.4,None,
,,,,272,0,272,0,,,,,,,,,46.42474558399772,46.48871012499876,922261,001,2023-03-18_09h50.32.869,simple VEP,2022.2.4,None,
,,,,273,0,273,0,,,,,,,,,46.48871012499876,46.54650274999949,922261,001,2023-03-18_09h50.32.869,simple VEP,2022.2.4,None,
,,,,274,0,274,0,,,,,,,,,46.54650274999949,46.6053787919991,922261,001,2023-03-18_09h50.32.869,simple VEP,2022.2.4,None,
,,,,275,0,275,0,,,,,,,,,46.6053787919991,46.665314624999155,922261,001,2023-03-18_09h50.32.869,simple VEP,2022.2.4,None,
,,,,276,0,276,0,,,,,,,,,46.665314624999155,46.730825250000635,922261,001,2023-03-18_09h50.32.869,simple VEP,2022.2.4,None,
,,,,277,0,277,0,,,,,,,,,46.730825250000635,46.79471720899892,922261,001,2023-03-18_09h50.32.869,simple VEP,2022.2.4,None,
,,,,278,0,278,0,,,,,,,,,46.79471720899892,46.85517954199895,922261,001,2023-03-18_09h50.32.869,simple VEP,2022.2.4,None,
,,,,279,0,279,0,,,,,,,,,46.85517954199895,46.91498941700047,922261,001,2023-03-18_09h50.32.869,simple VEP,2022.2.4,None,
,,,,280,0,280,0,,,,,,,,,46.91498941700047,46.98039416699976,922261,001,2023-03-18_09h50.32.869,simple VEP,2022.2.4,None,
,,,,281,0,281,0,,,,,,,,,46.98039416699976,47.04749770899798,922261,001,2023-03-18_09h50.32.869,simple VEP,2022.2.4,None,
,,,,282,0,282,0,,,,,,,,,47.04749770899798,47.108721791999415,922261,001,2023-03-18_09h50.32.869,simple VEP,2022.2.4,None,
,,,,283,0,283,0,,,,,,,,,47.108721791999415,47.17217462500048,922261,001,2023-03-18_09h50.32.869,simple VEP,2022.2.4,None,
,,,,284,0,284,0,,,,,,,,,47.17217462500048,47.23118537499977,922261,001,2023-03-18_09h50.32.869,simple VEP,2022.2.4,None,
,,,,285,0,285,0,,,,,,,,,47.23118537499977,47.29055533399878,922261,001,2023-03-18_09h50.32.869,simple VEP,2022.2.4,None,
,,,,286,0,286,0,,,,,,,,,47.29055533399878,47.35519004199887,922261,001,2023-03-18_09h50.32.869,simple VEP,2022.2.4,None,
,,,,287,0,287,0,,,,,,,,,47.35519004199887,47.413580166998145,922261,001,2023-03-18_09h50.32.869,simple VEP,2022.2.4,None,
,,,,288,0,288,0,,,,,,,,,47.413580166998145,47.47512620899943,922261,001,2023-03-18_09h50.32.869,simple VEP,2022.2.4,None,
,,,,289,0,289,0,,,,,,,,,47.47512620899943,47.5385947499999,922261,001,2023-03-18_09h50.32.869,simple VEP,2022.2.4,None,
,,,,290,0,290,0,,,,,,,,,47.5385947499999,47.596677917001216,922261,001,2023-03-18_09h50.32.869,simple VEP,2022.2.4,None,
,,,,291,0,291,0,,,,,,,,,47.596677917001216,47.65557474999878,922261,001,2023-03-18_09h50.32.869,simple VEP,2022.2.4,None,
,,,,292,0,292,0,,,,,,,,,47.65557474999878,47.713746458997775,922261,001,2023-03-18_09h50.32.869,simple VEP,2022.2.4,None,
,,,,293,0,293,0,,,,,,,,,47.713746458997775,47.78147395899941,922261,001,2023-03-18_09h50.32.869,simple VEP,2022.2.4,None,
,,,,294,0,294,0,,,,,,,,,47.78147395899941,47.848178833999555,922261,001,2023-03-18_09h50.32.869,simple VEP,2022.2.4,None,
,,,,295,0,295,0,,,,,,,,,47.848178833999555,47.91255029199965,922261,001,2023-03-18_09h50.32.869,simple VEP,2022.2.4,None,
,,,,296,0,296,0,,,,,,,,,47.91255029199965,47.97189499999877,922261,001,2023-03-18_09h50.32.869,simple VEP,2022.2.4,None,
,,,,297,0,297,0,,,,,,,,,47.97189499999877,48.03206237500126,922261,001,2023-03-18_09h50.32.869,simple VEP,2022.2.4,None,
,,,,298,0,298,0,,,,,,,,,48.03206237500126,48.098428749999584,922261,001,2023-03-18_09h50.32.869,simple VEP,2022.2.4,None,
,,,,299,0,299,0,,,,,,,,,48.098428749999584,48.1608446249993,922261,001,2023-03-18_09h50.32.869,simple VEP,2022.2.4,None,
